Time,header.seq,header.stamp.secs,header.stamp.nsecs,header.frame_id,orientation.x,orientation.y,orientation.z,orientation.w,orientation_covariance_0,orientation_covariance_1,orientation_covariance_2,orientation_covariance_3,orientation_covariance_4,orientation_covariance_5,orientation_covariance_6,orientation_covariance_7,orientation_covariance_8,angular_velocity.x,angular_velocity.y,angular_velocity.z,angular_velocity_covariance_0,angular_velocity_covariance_1,angular_velocity_covariance_2,angular_velocity_covariance_3,angular_velocity_covariance_4,angular_velocity_covariance_5,angular_velocity_covariance_6,angular_velocity_covariance_7,angular_velocity_covariance_8,linear_acceleration.x,linear_acceleration.y,linear_acceleration.z,linear_acceleration_covariance_0,linear_acceleration_covariance_1,linear_acceleration_covariance_2,linear_acceleration_covariance_3,linear_acceleration_covariance_4,linear_acceleration_covariance_5,linear_acceleration_covariance_6,linear_acceleration_covariance_7,linear_acceleration_covariance_8
1664959676.9869707,2574,1664959676,974539702,Waveshare_Sense_HAT_B/IMU,-0.7720806301617564,-0.6354606736920928,0.008443032126660623,0.0031540336594602686,-1.0,-1.0,-1.0,-1.0,-1.0,-1.0,-1.0,-1.0,-1.0,-0.010652644360316951,0.0026631610900792377,0.00985369603329318,0.0,0.0,0.0,0.0,0.0,0.0,0.0,0.0,0.0,-0.16645385742187502,-0.3879931640625,10.00399658203125,0.0,0.0,0.0,0.0,0.0,0.0,0.0,0.0,0.0
1664959676.9990766,2575,1664959676,986727491,Waveshare_Sense_HAT_B/IMU,-0.7721084252221924,-0.6354266967105484,0.008454528253290097,0.003164452628977801,-1.0,-1.0,-1.0,-1.0,-1.0,-1.0,-1.0,-1.0,-1.0,-0.0077231671612297895,-0.0026631610900792377,0.0042610577441267805,0.0,0.0,0.0,0.0,0.0,0.0,0.0,0.0,0.0,-0.16046630859375,-0.3496728515625,9.98244140625,0.0,0.0,0.0,0.0,0.0,0.0,0.0,0.0,0.0
1664959677.0111406,2576,1664959676,998896409,Waveshare_Sense_HAT_B/IMU,-0.772152981171049,-0.6353719671345966,0.008490310946545334,0.0031861682638566133,-1.0,-1.0,-1.0,-1.0,-1.0,-1.0,-1.0,-1.0,-1.0,-0.0053263221801584755,-0.0055926382891664,0.008522115488253561,0.0,0.0,0.0,0.0,0.0,0.0,0.0,0.0,0.0,-0.1389111328125,-0.38200561523437504,9.981243896484376,0.0,0.0,0.0,0.0,0.0,0.0,0.0,0.0,0.0
1664959677.02326,2577,1664959677,11004940,Waveshare_Sense_HAT_B/IMU,-0.7722043166048942,-0.6353099904643333,0.008460223306266591,0.0031834029881611754,-1.0,-1.0,-1.0,-1.0,-1.0,-1.0,-1.0,-1.0,-1.0,-0.013049489341388266,0.0002663161090079238,0.010386328251309028,0.0,0.0,0.0,0.0,0.0,0.0,0.0,0.0,0.0,-0.130528564453125,-0.34248779296875004,9.97525634765625,0.0,0.0,0.0,0.0,0.0,0.0,0.0,0.0,0.0
1664959677.0353692,2578,1664959677,23112526,Waveshare_Sense_HAT_B/IMU,-0.7722832192087539,-0.6352142301240311,0.0084379681520781,0.0032112100465278982,-1.0,-1.0,-1.0,-1.0,-1.0,-1.0,-1.0,-1.0,-1.0,-0.007989483270237713,0.002396844981071314,0.01757686319452297,0.0,0.0,0.0,0.0,0.0,0.0,0.0,0.0,0.0,-0.118553466796875,-0.335302734375,9.980046386718751,0.0,0.0,0.0,0.0,0.0,0.0,0.0,0.0,0.0
1664959677.047521,2579,1664959677,35216205,Waveshare_Sense_HAT_B/IMU,-0.7723035625791352,-0.6351901608749434,0.008392907123337153,0.0031977906839612594,-1.0,-1.0,-1.0,-1.0,-1.0,-1.0,-1.0,-1.0,-1.0,-0.014913702104443732,0.002396844981071314,0.0034621094171030094,0.0,0.0,0.0,0.0,0.0,0.0,0.0,0.0,0.0,-0.12094848632812501,-0.3305126953125,9.96567626953125,0.0,0.0,0.0,0.0,0.0,0.0,0.0,0.0,0.0
1664959677.0596588,2580,1664959677,47370679,Waveshare_Sense_HAT_B/IMU,-0.7723244396277137,-0.6351650172921204,0.008379303857202815,0.0031855971036560634,-1.0,-1.0,-1.0,-1.0,-1.0,-1.0,-1.0,-1.0,-1.0,-0.0111852765783328,-0.0007989483270237714,0.0034621094171030094,0.0,0.0,0.0,0.0,0.0,0.0,0.0,0.0,0.0,-0.140108642578125,-0.319735107421875,9.980046386718751,0.0,0.0,0.0,0.0,0.0,0.0,0.0,0.0,0.0
1664959677.0717494,2581,1664959677,59494302,Waveshare_Sense_HAT_B/IMU,-0.7723649235121612,-0.635116238471023,0.008349875696117006,0.0031730323558401235,-1.0,-1.0,-1.0,-1.0,-1.0,-1.0,-1.0,-1.0,-1.0,-0.012516857123372417,0.0015978966540475428,0.007989483270237713,0.0,0.0,0.0,0.0,0.0,0.0,0.0,0.0,0.0,-0.16525634765625,-0.30895751953125,9.992021484375,0.0,0.0,0.0,0.0,0.0,0.0,0.0,0.0,0.0
1664959677.0838451,2582,1664959677,71599684,Waveshare_Sense_HAT_B/IMU,-0.7723629404096412,-0.6351185422607332,0.008368889402066015,0.0031443995532161534,-1.0,-1.0,-1.0,-1.0,-1.0,-1.0,-1.0,-1.0,-1.0,-0.010120012142301104,-0.004527373853134705,-0.0031957933080950856,0.0,0.0,0.0,0.0,0.0,0.0,0.0,0.0,0.0,-0.22153930664062502,-0.31255004882812504,9.98962646484375,0.0,0.0,0.0,0.0,0.0,0.0,0.0,0.0,0.0
1664959677.0961158,2583,1664959677,83699011,Waveshare_Sense_HAT_B/IMU,-0.7723623107510403,-0.635119237489649,0.008385691939564593,0.0031137232655990828,-1.0,-1.0,-1.0,-1.0,-1.0,-1.0,-1.0,-1.0,-1.0,-0.012250541014364494,-0.0042610577441267805,-0.0029294771990871615,0.0,0.0,0.0,0.0,0.0,0.0,0.0,0.0,0.0,-0.229921875,-0.34727783203125,9.990823974609375,0.0,0.0,0.0,0.0,0.0,0.0,0.0,0.0,0.0
1664959677.1082382,2584,1664959677,95968243,Waveshare_Sense_HAT_B/IMU,-0.772335866521348,-0.6351515214875214,0.0083696245002006,0.0031310417644396958,-1.0,-1.0,-1.0,-1.0,-1.0,-1.0,-1.0,-1.0,-1.0,-0.009321063815277333,0.004527373853134705,-0.00985369603329318,0.0,0.0,0.0,0.0,0.0,0.0,0.0,0.0,0.0,-0.24069946289062502,-0.335302734375,9.986033935546876,0.0,0.0,0.0,0.0,0.0,0.0,0.0,0.0,0.0
1664959677.1203349,2585,1664959677,108096014,Waveshare_Sense_HAT_B/IMU,-0.7723133052484344,-0.6351782770866004,0.008399053598586271,0.0031891616742153847,-1.0,-1.0,-1.0,-1.0,-1.0,-1.0,-1.0,-1.0,-1.0,0.0005326322180158476,0.0029294771990871615,-0.008788431597261484,0.0,0.0,0.0,0.0,0.0,0.0,0.0,0.0,0.0,-0.23710693359375,-0.33171020507812504,9.980046386718751,0.0,0.0,0.0,0.0,0.0,0.0,0.0,0.0,0.0
1664959677.1324759,2586,1664959677,120196452,Waveshare_Sense_HAT_B/IMU,-0.7722993738590989,-0.6351938070479475,0.00850606115797561,0.0031861494559091846,-1.0,-1.0,-1.0,-1.0,-1.0,-1.0,-1.0,-1.0,-1.0,0.0013315805450396189,-0.012516857123372417,-0.006391586616190171,0.0,0.0,0.0,0.0,0.0,0.0,0.0,0.0,0.0,-0.2442919921875,-0.32332763671875003,9.981243896484376,0.0,0.0,0.0,0.0,0.0,0.0,0.0,0.0,0.0
1664959677.144574,2587,1664959677,132307760,Waveshare_Sense_HAT_B/IMU,-0.7722921322294055,-0.6352018045239899,0.008576497688015218,0.0031581186539810023,-1.0,-1.0,-1.0,-1.0,-1.0,-1.0,-1.0,-1.0,-1.0,-0.0053263221801584755,-0.009587379924285256,-0.004527373853134705,0.0,0.0,0.0,0.0,0.0,0.0,0.0,0.0,0.0,-0.257464599609375,-0.324525146484375,9.987231445312501,0.0,0.0,0.0,0.0,0.0,0.0,0.0,0.0,0.0
1664959677.1567106,2588,1664959677,144415883,Waveshare_Sense_HAT_B/IMU,-0.7722605494336565,-0.6352391546190321,0.008665087346785257,0.003126737692316829,-1.0,-1.0,-1.0,-1.0,-1.0,-1.0,-1.0,-1.0,-1.0,-0.003728425526110933,-0.012250541014364494,-0.010386328251309028,0.0,0.0,0.0,0.0,0.0,0.0,0.0,0.0,0.0,-0.24908203125,-0.32332763671875003,9.978848876953126,0.0,0.0,0.0,0.0,0.0,0.0,0.0,0.0,0.0
1664959677.1688356,2589,1664959677,156541988,Waveshare_Sense_HAT_B/IMU,-0.7721745130050038,-0.635342350825925,0.008782382005409968,0.0030803374463652853,-1.0,-1.0,-1.0,-1.0,-1.0,-1.0,-1.0,-1.0,-1.0,-0.0031957933080950856,-0.01810949541253882,-0.023968449810713142,0.0,0.0,0.0,0.0,0.0,0.0,0.0,0.0,0.0,-0.233514404296875,-0.33410522460937503,9.9584912109375,0.0,0.0,0.0,0.0,0.0,0.0,0.0,0.0,0.0
1664959677.181022,2590,1664959677,168673388,Waveshare_Sense_HAT_B/IMU,-0.7720964497574173,-0.6354363210866338,0.008867384138055861,0.0030205321425984433,-1.0,-1.0,-1.0,-1.0,-1.0,-1.0,-1.0,-1.0,-1.0,-0.008255799379245638,-0.01810949541253882,-0.022104237047657675,0.0,0.0,0.0,0.0,0.0,0.0,0.0,0.0,0.0,-0.18561401367187502,-0.336500244140625,9.97046630859375,0.0,0.0,0.0,0.0,0.0,0.0,0.0,0.0,0.0
1664959677.1930943,2591,1664959677,180836695,Waveshare_Sense_HAT_B/IMU,-0.7720039704090716,-0.6355471403586405,0.00900764311284724,0.002926503055717919,-1.0,-1.0,-1.0,-1.0,-1.0,-1.0,-1.0,-1.0,-1.0,-0.0066579027251980945,-0.028495823663847845,-0.025566346464760685,0.0,0.0,0.0,0.0,0.0,0.0,0.0,0.0,0.0,-0.188009033203125,-0.33290771484375004,9.9968115234375,0.0,0.0,0.0,0.0,0.0,0.0,0.0,0.0,0.0
1664959677.2051847,2592,1664959677,192951985,Waveshare_Sense_HAT_B/IMU,-0.7719525038881618,-0.6356083533966836,0.00915334465416101,0.00275120242730276,-1.0,-1.0,-1.0,-1.0,-1.0,-1.0,-1.0,-1.0,-1.0,-0.013315805450396189,-0.036751623043093484,-0.014913702104443732,0.0,0.0,0.0,0.0,0.0,0.0,0.0,0.0,0.0,-0.19399658203125,-0.27542724609375,10.002799072265626,0.0,0.0,0.0,0.0,0.0,0.0,0.0,0.0,0.0
1664959677.2173152,2593,1664959677,205052016,Waveshare_Sense_HAT_B/IMU,-0.7718767212818453,-0.6356994572172654,0.009257957741334076,0.0026110257222831832,-1.0,-1.0,-1.0,-1.0,-1.0,-1.0,-1.0,-1.0,-1.0,-0.014381069886427884,-0.02902845588186369,-0.022104237047657675,0.0,0.0,0.0,0.0,0.0,0.0,0.0,0.0,0.0,-0.22153930664062502,-0.288599853515625,10.000404052734375,0.0,0.0,0.0,0.0,0.0,0.0,0.0,0.0,0.0
1664959677.2294672,2594,1664959677,217162824,Waveshare_Sense_HAT_B/IMU,-0.7718255934553985,-0.635760433950273,0.00935502467040915,0.002531288999466723,-1.0,-1.0,-1.0,-1.0,-1.0,-1.0,-1.0,-1.0,-1.0,-0.0077231671612297895,-0.02103897261162598,-0.015712650431467502,0.0,0.0,0.0,0.0,0.0,0.0,0.0,0.0,0.0,-0.23231689453125,-0.29219238281250004,9.978848876953126,0.0,0.0,0.0,0.0,0.0,0.0,0.0,0.0,0.0
1664959677.2415683,2595,1664959677,229303058,Waveshare_Sense_HAT_B/IMU,-0.7718340923613566,-0.6357487303246635,0.009453162098902243,0.0025146541772605694,-1.0,-1.0,-1.0,-1.0,-1.0,-1.0,-1.0,-1.0,-1.0,-0.0002663161090079238,-0.016511598758491276,-0.0015978966540475428,0.0,0.0,0.0,0.0,0.0,0.0,0.0,0.0,0.0,-0.22752685546875,-0.29338989257812503,9.988428955078126,0.0,0.0,0.0,0.0,0.0,0.0,0.0,0.0,0.0
1664959677.2536871,2596,1664959677,241412311,Waveshare_Sense_HAT_B/IMU,-0.7718627458993241,-0.6357124912814893,0.009559711985204068,0.0024782712114712765,-1.0,-1.0,-1.0,-1.0,-1.0,-1.0,-1.0,-1.0,-1.0,-0.0026631610900792377,-0.01970739206658636,0.0034621094171030094,0.0,0.0,0.0,0.0,0.0,0.0,0.0,0.0,0.0,-0.228724365234375,-0.3113525390625,9.981243896484376,0.0,0.0,0.0,0.0,0.0,0.0,0.0,0.0,0.0
1664959677.265786,2597,1664959677,253524545,Waveshare_Sense_HAT_B/IMU,-0.7719360142939826,-0.6356225358934365,0.009629328700885178,0.0024612454342293577,-1.0,-1.0,-1.0,-1.0,-1.0,-1.0,-1.0,-1.0,-1.0,-0.0042610577441267805,-0.014647385995435807,0.014381069886427884,0.0,0.0,0.0,0.0,0.0,0.0,0.0,0.0,0.0,-0.204774169921875,-0.316142578125,9.998009033203125,0.0,0.0,0.0,0.0,0.0,0.0,0.0,0.0,0.0
1664959677.2778752,2598,1664959677,265626261,Waveshare_Sense_HAT_B/IMU,-0.7720546100249889,-0.635477846059563,0.009665979087690596,0.0024809584714719263,-1.0,-1.0,-1.0,-1.0,-1.0,-1.0,-1.0,-1.0,-1.0,-0.002396844981071314,-0.006391586616190171,0.02609897868277653,0.0,0.0,0.0,0.0,0.0,0.0,0.0,0.0,0.0,-0.195194091796875,-0.30895751953125,9.998009033203125,0.0,0.0,0.0,0.0,0.0,0.0,0.0,0.0,0.0
1664959677.2900646,2599,1664959677,277728828,Waveshare_Sense_HAT_B/IMU,-0.7721827885932169,-0.6353223932520287,0.009652185141582318,0.00245620742415527,-1.0,-1.0,-1.0,-1.0,-1.0,-1.0,-1.0,-1.0,-1.0,-0.013315805450396189,-0.004793689962142628,0.028495823663847845,0.0,0.0,0.0,0.0,0.0,0.0,0.0,0.0,0.0,-0.18920654296875,-0.316142578125,9.981243896484376,0.0,0.0,0.0,0.0,0.0,0.0,0.0,0.0,0.0
1664959677.3022504,2600,1664959677,289894562,Waveshare_Sense_HAT_B/IMU,-0.7722964688205489,-0.6351846994366689,0.00961595261626833,0.002468866975213571,-1.0,-1.0,-1.0,-1.0,-1.0,-1.0,-1.0,-1.0,-1.0,-0.010918960469324876,0.0021305288720633903,0.02476739813773691,0.0,0.0,0.0,0.0,0.0,0.0,0.0,0.0,0.0,-0.19639160156250002,-0.31374755859375003,9.97046630859375,0.0,0.0,0.0,0.0,0.0,0.0,0.0,0.0,0.0
1664959677.3143086,2601,1664959677,302057888,Waveshare_Sense_HAT_B/IMU,-0.7724125706726068,-0.6350436593688544,0.009610834301109336,0.002450148237650985,-1.0,-1.0,-1.0,-1.0,-1.0,-1.0,-1.0,-1.0,-1.0,-0.00985369603329318,-0.0055926382891664,0.025566346464760685,0.0,0.0,0.0,0.0,0.0,0.0,0.0,0.0,0.0,-0.17483642578125,-0.276624755859375,9.972861328125001,0.0,0.0,0.0,0.0,0.0,0.0,0.0,0.0,0.0
1664959677.3264394,2602,1664959677,314168103,Waveshare_Sense_HAT_B/IMU,-0.7725146163117473,-0.634919414304635,0.009626759022643832,0.0024146292661303406,-1.0,-1.0,-1.0,-1.0,-1.0,-1.0,-1.0,-1.0,-1.0,-0.00985369603329318,-0.011717908796348646,0.021837920938649752,0.0,0.0,0.0,0.0,0.0,0.0,0.0,0.0,0.0,-0.1484912109375,-0.27422973632812503,9.992021484375,0.0,0.0,0.0,0.0,0.0,0.0,0.0,0.0,0.0
1664959677.3385303,2603,1664959677,326282504,Waveshare_Sense_HAT_B/IMU,-0.7726116366332092,-0.6348016598950962,0.009620093268697989,0.002359097048867665,-1.0,-1.0,-1.0,-1.0,-1.0,-1.0,-1.0,-1.0,-1.0,-0.01411475377741996,-0.011984224905356571,0.020506340393610132,0.0,0.0,0.0,0.0,0.0,0.0,0.0,0.0,0.0,-0.13172607421875002,-0.26105712890625,9.974058837890626,0.0,0.0,0.0,0.0,0.0,0.0,0.0,0.0,0.0
1664959677.3507009,2604,1664959677,338394127,Waveshare_Sense_HAT_B/IMU,-0.7726489213633764,-0.6347581951156127,0.009509637560435076,0.002290162232221287,-1.0,-1.0,-1.0,-1.0,-1.0,-1.0,-1.0,-1.0,-1.0,-0.025566346464760685,-0.0005326322180158476,0.0055926382891664,0.0,0.0,0.0,0.0,0.0,0.0,0.0,0.0,0.0,-0.118553466796875,-0.24668701171875002,9.987231445312501,0.0,0.0,0.0,0.0,0.0,0.0,0.0,0.0,0.0
1664959677.3628383,2605,1664959677,350532287,Waveshare_Sense_HAT_B/IMU,-0.7726510361087077,-0.6347574255243305,0.00941774843089328,0.002166369395304293,-1.0,-1.0,-1.0,-1.0,-1.0,-1.0,-1.0,-1.0,-1.0,-0.029294771990871615,-0.007456851052221866,-0.0029294771990871615,0.0,0.0,0.0,0.0,0.0,0.0,0.0,0.0,0.0,-0.1293310546875,-0.22034179687500002,9.9680712890625,0.0,0.0,0.0,0.0,0.0,0.0,0.0,0.0,0.0
1664959677.3749154,2606,1664959677,362661298,Waveshare_Sense_HAT_B/IMU,-0.7726344437203663,-0.6347792748947569,0.00933558493645478,0.002033567038700965,-1.0,-1.0,-1.0,-1.0,-1.0,-1.0,-1.0,-1.0,-1.0,-0.029294771990871615,-0.008788431597261484,-0.007989483270237713,0.0,0.0,0.0,0.0,0.0,0.0,0.0,0.0,0.0,-0.162861328125,-0.209564208984375,9.972861328125001,0.0,0.0,0.0,0.0,0.0,0.0,0.0,0.0,0.0
1664959677.3870137,2607,1664959677,374765625,Waveshare_Sense_HAT_B/IMU,-0.7725826308530455,-0.6348435647937667,0.009266120263287634,0.001966153451726787,-1.0,-1.0,-1.0,-1.0,-1.0,-1.0,-1.0,-1.0,-1.0,-0.02024002428460221,-0.003994741635118856,-0.017044230976507122,0.0,0.0,0.0,0.0,0.0,0.0,0.0,0.0,0.0,-0.16525634765625,-0.21076171875000002,9.980046386718751,0.0,0.0,0.0,0.0,0.0,0.0,0.0,0.0,0.0
1664959677.3991985,2608,1664959677,386868452,Waveshare_Sense_HAT_B/IMU,-0.7725136784009311,-0.634928591624859,0.00920282752751264,0.0018995226334685767,-1.0,-1.0,-1.0,-1.0,-1.0,-1.0,-1.0,-1.0,-1.0,-0.02103897261162598,-0.0042610577441267805,-0.02103897261162598,0.0,0.0,0.0,0.0,0.0,0.0,0.0,0.0,0.0,-0.162861328125,-0.24548950195312502,9.99920654296875,0.0,0.0,0.0,0.0,0.0,0.0,0.0,0.0,0.0
1664959677.4112887,2609,1664959677,399037778,Waveshare_Sense_HAT_B/IMU,-0.7725004697902312,-0.6349459732768835,0.009125426034791764,0.0018335193008789802,-1.0,-1.0,-1.0,-1.0,-1.0,-1.0,-1.0,-1.0,-1.0,-0.025033714246744835,-0.0015978966540475428,-0.006391586616190171,0.0,0.0,0.0,0.0,0.0,0.0,0.0,0.0,0.0,-0.154478759765625,-0.310155029296875,9.99920654296875,0.0,0.0,0.0,0.0,0.0,0.0,0.0,0.0,0.0
1664959677.423416,2610,1664959677,411149198,Waveshare_Sense_HAT_B/IMU,-0.7724927556296287,-0.634957011579098,0.009018530966154788,0.0017894260243591586,-1.0,-1.0,-1.0,-1.0,-1.0,-1.0,-1.0,-1.0,-1.0,-0.02583266257376861,0.004527373853134705,-0.005060006071150552,0.0,0.0,0.0,0.0,0.0,0.0,0.0,0.0,0.0,-0.15687377929687502,-0.319735107421875,9.998009033203125,0.0,0.0,0.0,0.0,0.0,0.0,0.0,0.0,0.0
1664959677.435496,2611,1664959677,423257580,Waveshare_Sense_HAT_B/IMU,-0.7724721664965002,-0.6349832429409398,0.008933993152703368,0.0017935826599902924,-1.0,-1.0,-1.0,-1.0,-1.0,-1.0,-1.0,-1.0,-1.0,-0.01810949541253882,0.007456851052221866,-0.007989483270237713,0.0,0.0,0.0,0.0,0.0,0.0,0.0,0.0,0.0,-0.16046630859375,-0.33290771484375004,10.005194091796875,0.0,0.0,0.0,0.0,0.0,0.0,0.0,0.0,0.0
1664959677.4476879,2612,1664959677,435359648,Waveshare_Sense_HAT_B/IMU,-0.7724526138670659,-0.635007370417311,0.008904355203335594,0.0018196988878459077,-1.0,-1.0,-1.0,-1.0,-1.0,-1.0,-1.0,-1.0,-1.0,-0.00985369603329318,0.0029294771990871615,-0.007989483270237713,0.0,0.0,0.0,0.0,0.0,0.0,0.0,0.0,0.0,-0.17244140625,-0.32811767578125,9.987231445312501,0.0,0.0,0.0,0.0,0.0,0.0,0.0,0.0,0.0
1664959677.459815,2613,1664959677,447478159,Waveshare_Sense_HAT_B/IMU,-0.7724722688770534,-0.6349831809546744,0.008908683830985899,0.0018944848957450498,-1.0,-1.0,-1.0,-1.0,-1.0,-1.0,-1.0,-1.0,-1.0,-0.0015978966540475428,0.004527373853134705,0.0018642127630554665,0.0,0.0,0.0,0.0,0.0,0.0,0.0,0.0,0.0,-0.19160156250000002,-0.355660400390625,9.99920654296875,0.0,0.0,0.0,0.0,0.0,0.0,0.0,0.0,0.0
1664959677.47189,2614,1664959677,459634652,Waveshare_Sense_HAT_B/IMU,-0.7724560409404175,-0.635002972683621,0.008890530366496492,0.0019616236699476343,-1.0,-1.0,-1.0,-1.0,-1.0,-1.0,-1.0,-1.0,-1.0,-0.0053263221801584755,0.0053263221801584755,-0.007190534943213942,0.0,0.0,0.0,0.0,0.0,0.0,0.0,0.0,0.0,-0.16525634765625,-0.36643798828125,9.992021484375,0.0,0.0,0.0,0.0,0.0,0.0,0.0,0.0,0.0
1664959677.4839845,2615,1664959677,471738405,Waveshare_Sense_HAT_B/IMU,-0.7724868586884814,-0.634965626507156,0.008869728010859326,0.0020085400145814785,-1.0,-1.0,-1.0,-1.0,-1.0,-1.0,-1.0,-1.0,-1.0,-0.007190534943213942,0.0042610577441267805,0.005060006071150552,0.0,0.0,0.0,0.0,0.0,0.0,0.0,0.0,0.0,-0.16046630859375,-0.35326538085937503,9.98244140625,0.0,0.0,0.0,0.0,0.0,0.0,0.0,0.0,0.0
1664959677.4961514,2616,1664959677,483838473,Waveshare_Sense_HAT_B/IMU,-0.7725114795100625,-0.6349358666724549,0.008842252609102472,0.0020673187633578395,-1.0,-1.0,-1.0,-1.0,-1.0,-1.0,-1.0,-1.0,-1.0,-0.006391586616190171,0.0053263221801584755,0.0029294771990871615,0.0,0.0,0.0,0.0,0.0,0.0,0.0,0.0,0.0,-0.16046630859375,-0.346080322265625,9.9680712890625,0.0,0.0,0.0,0.0,0.0,0.0,0.0,0.0,0.0
1664959677.5082915,2617,1664959677,495984799,Waveshare_Sense_HAT_B/IMU,-0.7724838187161495,-0.6349698841302343,0.008800352531548199,0.00213304117930531,-1.0,-1.0,-1.0,-1.0,-1.0,-1.0,-1.0,-1.0,-1.0,-0.005858954398174323,0.007989483270237713,-0.010386328251309028,0.0,0.0,0.0,0.0,0.0,0.0,0.0,0.0,0.0,-0.17004638671875,-0.319735107421875,9.976453857421875,0.0,0.0,0.0,0.0,0.0,0.0,0.0,0.0,0.0
1664959677.5203803,2618,1664959677,508133495,Waveshare_Sense_HAT_B/IMU,-0.7724304769932889,-0.635035302350386,0.008749423967371894,0.0021841613752331852,-1.0,-1.0,-1.0,-1.0,-1.0,-1.0,-1.0,-1.0,-1.0,-0.009587379924285256,0.00905474770626941,-0.016511598758491276,0.0,0.0,0.0,0.0,0.0,0.0,0.0,0.0,0.0,-0.18441650390625,-0.3448828125,9.953701171875,0.0,0.0,0.0,0.0,0.0,0.0,0.0,0.0,0.0
1664959677.532513,2619,1664959677,520234804,Waveshare_Sense_HAT_B/IMU,-0.7723398099058687,-0.6351457542828357,0.008734105632104522,0.002191859909156222,-1.0,-1.0,-1.0,-1.0,-1.0,-1.0,-1.0,-1.0,-1.0,-0.011451592687340723,0.0,-0.02583266257376861,0.0,0.0,0.0,0.0,0.0,0.0,0.0,0.0,0.0,-0.17962646484375,-0.346080322265625,9.953701171875,0.0,0.0,0.0,0.0,0.0,0.0,0.0,0.0,0.0
1664959677.5446136,2620,1664959677,532350575,Waveshare_Sense_HAT_B/IMU,-0.7723090923973458,-0.6351832634996927,0.008722704158184592,0.0021913471739193756,-1.0,-1.0,-1.0,-1.0,-1.0,-1.0,-1.0,-1.0,-1.0,-0.011451592687340723,-0.0010652644360316951,-0.010386328251309028,0.0,0.0,0.0,0.0,0.0,0.0,0.0,0.0,0.0,-0.17244140625,-0.338895263671875,9.9680712890625,0.0,0.0,0.0,0.0,0.0,0.0,0.0,0.0,0.0
1664959677.556748,2621,1664959677,544456439,Waveshare_Sense_HAT_B/IMU,-0.7722326674806893,-0.6352764391445002,0.008718577967522142,0.0021306200429281916,-1.0,-1.0,-1.0,-1.0,-1.0,-1.0,-1.0,-1.0,-1.0,-0.017843179303530892,-0.0077231671612297895,-0.021837920938649752,0.0,0.0,0.0,0.0,0.0,0.0,0.0,0.0,0.0,-0.18202148437500001,-0.3305126953125,9.964478759765626,0.0,0.0,0.0,0.0,0.0,0.0,0.0,0.0,0.0
1664959677.5688293,2622,1664959677,556571618,Waveshare_Sense_HAT_B/IMU,-0.7721581729636467,-0.6353673585867836,0.008711010267455745,0.0020478935559960286,-1.0,-1.0,-1.0,-1.0,-1.0,-1.0,-1.0,-1.0,-1.0,-0.01970739206658636,-0.008255799379245638,-0.021571604829641825,0.0,0.0,0.0,0.0,0.0,0.0,0.0,0.0,0.0,-0.21555175781250002,-0.300574951171875,9.956096191406251,0.0,0.0,0.0,0.0,0.0,0.0,0.0,0.0,0.0
1664959677.5809858,2623,1664959677,568676074,Waveshare_Sense_HAT_B/IMU,-0.7720903222899248,-0.6354499219269079,0.00871635939527976,0.0019889766762874166,-1.0,-1.0,-1.0,-1.0,-1.0,-1.0,-1.0,-1.0,-1.0,-0.015978966540475426,-0.006924218834206019,-0.019973708175594285,0.0,0.0,0.0,0.0,0.0,0.0,0.0,0.0,0.0,-0.23111938476562502,-0.310155029296875,9.962083740234375,0.0,0.0,0.0,0.0,0.0,0.0,0.0,0.0,0.0
1664959677.59309,2624,1664959677,580842752,Waveshare_Sense_HAT_B/IMU,-0.7720348273526063,-0.6355173290675838,0.008728870015149026,0.0019382047606847598,-1.0,-1.0,-1.0,-1.0,-1.0,-1.0,-1.0,-1.0,-1.0,-0.014647385995435807,-0.0066579027251980945,-0.016245282649483352,0.0,0.0,0.0,0.0,0.0,0.0,0.0,0.0,0.0,-0.214354248046875,-0.32572265625,9.966873779296876,0.0,0.0,0.0,0.0,0.0,0.0,0.0,0.0,0.0
1664959677.605177,2625,1664959677,592944801,Waveshare_Sense_HAT_B/IMU,-0.7719829431704621,-0.6355792195500064,0.008827029232937437,0.0018640506959694651,-1.0,-1.0,-1.0,-1.0,-1.0,-1.0,-1.0,-1.0,-1.0,-0.008788431597261484,-0.020772656502618055,-0.015446334322459579,0.0,0.0,0.0,0.0,0.0,0.0,0.0,0.0,0.0,-0.20357666015625,-0.3209326171875,9.97046630859375,0.0,0.0,0.0,0.0,0.0,0.0,0.0,0.0,0.0
1664959677.6172872,2626,1664959677,605042609,Waveshare_Sense_HAT_B/IMU,-0.7719218880607359,-0.6356522615545068,0.008921065005937388,0.0017932407952383576,-1.0,-1.0,-1.0,-1.0,-1.0,-1.0,-1.0,-1.0,-1.0,-0.0055926382891664,-0.019973708175594285,-0.017843179303530892,0.0,0.0,0.0,0.0,0.0,0.0,0.0,0.0,0.0,-0.207169189453125,-0.25147705078125,9.9968115234375,0.0,0.0,0.0,0.0,0.0,0.0,0.0,0.0,0.0
1664959677.6294658,2627,1664959677,617144825,Waveshare_Sense_HAT_B/IMU,-0.7718661932794701,-0.6357192219078659,0.008972092923635745,0.001775420425352844,-1.0,-1.0,-1.0,-1.0,-1.0,-1.0,-1.0,-1.0,-1.0,-0.003728425526110933,-0.009587379924285256,-0.017310547085515045,0.0,0.0,0.0,0.0,0.0,0.0,0.0,0.0,0.0,-0.23111938476562502,-0.250279541015625,9.993218994140625,0.0,0.0,0.0,0.0,0.0,0.0,0.0,0.0,0.0
1664959677.6415734,2628,1664959677,629299929,Waveshare_Sense_HAT_B/IMU,-0.7717808538032969,-0.6358218788700697,0.00903890113133586,0.0017749138364018527,-1.0,-1.0,-1.0,-1.0,-1.0,-1.0,-1.0,-1.0,-1.0,-0.0013315805450396189,-0.010120012142301104,-0.025033714246744835,0.0,0.0,0.0,0.0,0.0,0.0,0.0,0.0,0.0,-0.233514404296875,-0.27542724609375,9.976453857421875,0.0,0.0,0.0,0.0,0.0,0.0,0.0,0.0,0.0
1664959677.6537366,2629,1664959677,641421385,Waveshare_Sense_HAT_B/IMU,-0.771727464373463,-0.6358855445309719,0.009111593835226613,0.0018093772509521417,-1.0,-1.0,-1.0,-1.0,-1.0,-1.0,-1.0,-1.0,-1.0,0.005060006071150552,-0.008255799379245638,-0.017310547085515045,0.0,0.0,0.0,0.0,0.0,0.0,0.0,0.0,0.0,-0.22513183593750002,-0.24189697265625001,9.97046630859375,0.0,0.0,0.0,0.0,0.0,0.0,0.0,0.0,0.0
1664959677.665807,2630,1664959677,653548730,Waveshare_Sense_HAT_B/IMU,-0.7717167407453428,-0.6358974011338387,0.00916974391299672,0.0019191355306868003,-1.0,-1.0,-1.0,-1.0,-1.0,-1.0,-1.0,-1.0,-1.0,0.011451592687340723,0.0005326322180158476,-0.006125270507182247,0.0,0.0,0.0,0.0,0.0,0.0,0.0,0.0,0.0,-0.192799072265625,-0.281414794921875,9.966873779296876,0.0,0.0,0.0,0.0,0.0,0.0,0.0,0.0,0.0
1664959677.6779203,2631,1664959677,665657613,Waveshare_Sense_HAT_B/IMU,-0.7717080319187215,-0.6359069143793756,0.009214792153707498,0.0020487367323959735,-1.0,-1.0,-1.0,-1.0,-1.0,-1.0,-1.0,-1.0,-1.0,0.012250541014364494,0.003728425526110933,-0.005858954398174323,0.0,0.0,0.0,0.0,0.0,0.0,0.0,0.0,0.0,-0.18920654296875,-0.288599853515625,9.97046630859375,0.0,0.0,0.0,0.0,0.0,0.0,0.0,0.0,0.0
1664959677.690013,2632,1664959677,677761440,Waveshare_Sense_HAT_B/IMU,-0.7717076944143674,-0.6359057819899188,0.009295690364726166,0.002158924291093247,-1.0,-1.0,-1.0,-1.0,-1.0,-1.0,-1.0,-1.0,-1.0,0.013582121559404112,-0.0021305288720633903,-0.003728425526110933,0.0,0.0,0.0,0.0,0.0,0.0,0.0,0.0,0.0,-0.204774169921875,-0.288599853515625,9.969268798828125,0.0,0.0,0.0,0.0,0.0,0.0,0.0,0.0,0.0
1664959677.702221,2633,1664959677,689868192,Waveshare_Sense_HAT_B/IMU,-0.7717442873342943,-0.635860393695319,0.00932396138828402,0.0023191465124266066,-1.0,-1.0,-1.0,-1.0,-1.0,-1.0,-1.0,-1.0,-1.0,0.014913702104443732,0.009587379924285256,0.005060006071150552,0.0,0.0,0.0,0.0,0.0,0.0,0.0,0.0,0.0,-0.22034179687500002,-0.276624755859375,9.956096191406251,0.0,0.0,0.0,0.0,0.0,0.0,0.0,0.0,0.0
1664959677.714306,2634,1664959677,702004463,Waveshare_Sense_HAT_B/IMU,-0.7717925888742606,-0.6358010714839931,0.009351478356953864,0.0023973133112676326,-1.0,-1.0,-1.0,-1.0,-1.0,-1.0,-1.0,-1.0,-1.0,0.0034621094171030094,0.0015978966540475428,0.008522115488253561,0.0,0.0,0.0,0.0,0.0,0.0,0.0,0.0,0.0,-0.207169189453125,-0.3113525390625,9.94651611328125,0.0,0.0,0.0,0.0,0.0,0.0,0.0,0.0,0.0
1664959677.7264178,2635,1664959677,714143993,Waveshare_Sense_HAT_B/IMU,-0.7718651441803015,-0.6357114808936589,0.009442180699587487,0.0024407955976996766,-1.0,-1.0,-1.0,-1.0,-1.0,-1.0,-1.0,-1.0,-1.0,0.004527373853134705,-0.009321063815277333,0.015180018213451656,0.0,0.0,0.0,0.0,0.0,0.0,0.0,0.0,0.0,-0.19878662109375,-0.34129028320312504,9.935738525390626,0.0,0.0,0.0,0.0,0.0,0.0,0.0,0.0,0.0
1664959677.7385242,2636,1664959677,726261653,Waveshare_Sense_HAT_B/IMU,-0.7719584043473856,-0.6355965209557365,0.0095532318409486,0.0024536234012875156,-1.0,-1.0,-1.0,-1.0,-1.0,-1.0,-1.0,-1.0,-1.0,0.0034621094171030094,-0.01411475377741996,0.020772656502618055,0.0,0.0,0.0,0.0,0.0,0.0,0.0,0.0,0.0,-0.204774169921875,-0.33410522460937503,9.957293701171876,0.0,0.0,0.0,0.0,0.0,0.0,0.0,0.0,0.0
1664959677.7506766,2637,1664959677,738367906,Waveshare_Sense_HAT_B/IMU,-0.7720204493751556,-0.6355201859326204,0.009606313595797724,0.0024975503698335334,-1.0,-1.0,-1.0,-1.0,-1.0,-1.0,-1.0,-1.0,-1.0,-0.0005326322180158476,-0.004527373853134705,0.012783173232380343,0.0,0.0,0.0,0.0,0.0,0.0,0.0,0.0,0.0,-0.19160156250000002,-0.377215576171875,9.969268798828125,0.0,0.0,0.0,0.0,0.0,0.0,0.0,0.0,0.0
1664959677.7628443,2638,1664959677,750499177,Waveshare_Sense_HAT_B/IMU,-0.7720882282371466,-0.6354361268232132,0.00972491822091556,0.002474370856096554,-1.0,-1.0,-1.0,-1.0,-1.0,-1.0,-1.0,-1.0,-1.0,-0.0026631610900792377,-0.020506340393610132,0.013848437668412037,0.0,0.0,0.0,0.0,0.0,0.0,0.0,0.0,0.0,-0.19399658203125,-0.38200561523437504,9.976453857421875,0.0,0.0,0.0,0.0,0.0,0.0,0.0,0.0,0.0
1664959677.7748942,2639,1664959677,762650614,Waveshare_Sense_HAT_B/IMU,-0.7721065774277782,-0.6354125616723256,0.009810891962949845,0.002460886154800085,-1.0,-1.0,-1.0,-1.0,-1.0,-1.0,-1.0,-1.0,-1.0,-0.004527373853134705,-0.016511598758491276,0.0013315805450396189,0.0,0.0,0.0,0.0,0.0,0.0,0.0,0.0,0.0,-0.17603393554687502,-0.37601806640625,9.97525634765625,0.0,0.0,0.0,0.0,0.0,0.0,0.0,0.0,0.0
1664959677.7870042,2640,1664959677,774757052,Waveshare_Sense_HAT_B/IMU,-0.7721263819943586,-0.6353879254070812,0.00984638388078423,0.0024664143324121656,-1.0,-1.0,-1.0,-1.0,-1.0,-1.0,-1.0,-1.0,-1.0,-0.006924218834206019,-0.008788431597261484,0.0015978966540475428,0.0,0.0,0.0,0.0,0.0,0.0,0.0,0.0,0.0,-0.16525634765625,-0.3688330078125,9.974058837890626,0.0,0.0,0.0,0.0,0.0,0.0,0.0,0.0,0.0
1664959677.7991037,2641,1664959677,786862546,Waveshare_Sense_HAT_B/IMU,-0.7720943623176241,-0.6354268554238403,0.009844595146037742,0.0024680011997965374,-1.0,-1.0,-1.0,-1.0,-1.0,-1.0,-1.0,-1.0,-1.0,-0.011717908796348646,-0.003994741635118856,-0.0111852765783328,0.0,0.0,0.0,0.0,0.0,0.0,0.0,0.0,0.0,-0.16525634765625,-0.38320312500000003,9.971663818359376,0.0,0.0,0.0,0.0,0.0,0.0,0.0,0.0,0.0
1664959677.8111975,2642,1664959677,798969817,Waveshare_Sense_HAT_B/IMU,-0.7720374216628981,-0.6354955702986282,0.009860813409315692,0.0025227052606380178,-1.0,-1.0,-1.0,-1.0,-1.0,-1.0,-1.0,-1.0,-1.0,-0.003994741635118856,-0.0015978966540475428,-0.01810949541253882,0.0,0.0,0.0,0.0,0.0,0.0,0.0,0.0,0.0,-0.17483642578125,-0.389190673828125,9.976453857421875,0.0,0.0,0.0,0.0,0.0,0.0,0.0,0.0,0.0
1664959677.8233695,2643,1664959677,811072274,Waveshare_Sense_HAT_B/IMU,-0.7719621678641082,-0.63558730102478,0.00981851640382465,0.002605935189062131,-1.0,-1.0,-1.0,-1.0,-1.0,-1.0,-1.0,-1.0,-1.0,-0.005060006071150552,0.008522115488253561,-0.022636869265673522,0.0,0.0,0.0,0.0,0.0,0.0,0.0,0.0,0.0,-0.16525634765625,-0.36404296875000003,9.98962646484375,0.0,0.0,0.0,0.0,0.0,0.0,0.0,0.0,0.0
1664959677.8354816,2644,1664959677,823185675,Waveshare_Sense_HAT_B/IMU,-0.7718642260490726,-0.635706672287548,0.009761039725594986,0.0027139377726443596,-1.0,-1.0,-1.0,-1.0,-1.0,-1.0,-1.0,-1.0,-1.0,-0.003728425526110933,0.011984224905356571,-0.028762139772855768,0.0,0.0,0.0,0.0,0.0,0.0,0.0,0.0,0.0,-0.159268798828125,-0.36284545898437504,9.971663818359376,0.0,0.0,0.0,0.0,0.0,0.0,0.0,0.0,0.0
1664959677.8475945,2645,1664959677,835330501,Waveshare_Sense_HAT_B/IMU,-0.771812207668473,-0.6357705461325726,0.009682404864920694,0.0028248540210443224,-1.0,-1.0,-1.0,-1.0,-1.0,-1.0,-1.0,-1.0,-1.0,-0.0055926382891664,0.014913702104443732,-0.017310547085515045,0.0,0.0,0.0,0.0,0.0,0.0,0.0,0.0,0.0,-0.1580712890625,-0.365240478515625,9.954898681640625,0.0,0.0,0.0,0.0,0.0,0.0,0.0,0.0,0.0
1664959677.8597507,2646,1664959677,847443809,Waveshare_Sense_HAT_B/IMU,-0.7717443610897411,-0.6358541495060751,0.009555404532311722,0.002972528606613101,-1.0,-1.0,-1.0,-1.0,-1.0,-1.0,-1.0,-1.0,-1.0,-0.004793689962142628,0.025033714246744835,-0.021305288720633902,0.0,0.0,0.0,0.0,0.0,0.0,0.0,0.0,0.0,-0.15567626953125,-0.34248779296875004,9.962083740234375,0.0,0.0,0.0,0.0,0.0,0.0,0.0,0.0,0.0
1664959677.8718376,2647,1664959677,859567191,Waveshare_Sense_HAT_B/IMU,-0.7717144557261815,-0.6358918841623582,0.00941709402130332,0.0031030339804085927,-1.0,-1.0,-1.0,-1.0,-1.0,-1.0,-1.0,-1.0,-1.0,-0.007456851052221866,0.02583266257376861,-0.011451592687340723,0.0,0.0,0.0,0.0,0.0,0.0,0.0,0.0,0.0,-0.16166381835937502,-0.335302734375,9.9680712890625,0.0,0.0,0.0,0.0,0.0,0.0,0.0,0.0,0.0
1664959677.883981,2648,1664959677,871678833,Waveshare_Sense_HAT_B/IMU,-0.7716574753937435,-0.635962134982075,0.00928601658110169,0.003267022199309121,-1.0,-1.0,-1.0,-1.0,-1.0,-1.0,-1.0,-1.0,-1.0,-0.0029294771990871615,0.0268979270098003,-0.018642127630554665,0.0,0.0,0.0,0.0,0.0,0.0,0.0,0.0,0.0,-0.144898681640625,-0.33769775390625,9.972861328125001,0.0,0.0,0.0,0.0,0.0,0.0,0.0,0.0,0.0
1664959677.8960683,2649,1664959677,883824066,Waveshare_Sense_HAT_B/IMU,-0.7716417488875122,-0.6359813193393345,0.009233973184964703,0.0033921327273937736,-1.0,-1.0,-1.0,-1.0,-1.0,-1.0,-1.0,-1.0,-1.0,0.0002663161090079238,0.012783173232380343,-0.007989483270237713,0.0,0.0,0.0,0.0,0.0,0.0,0.0,0.0,0.0,-0.1293310546875,-0.34129028320312504,9.972861328125001,0.0,0.0,0.0,0.0,0.0,0.0,0.0,0.0,0.0
1664959677.9081697,2650,1664959677,895933393,Waveshare_Sense_HAT_B/IMU,-0.7716254661998435,-0.6360016590930265,0.009145614559541547,0.0035195563811623353,-1.0,-1.0,-1.0,-1.0,-1.0,-1.0,-1.0,-1.0,-1.0,-0.0013315805450396189,0.017843179303530892,-0.008255799379245638,0.0,0.0,0.0,0.0,0.0,0.0,0.0,0.0,0.0,-0.13651611328125002,-0.30416748046875003,10.011181640625,0.0,0.0,0.0,0.0,0.0,0.0,0.0,0.0,0.0
1664959677.920272,2651,1664959677,908036016,Waveshare_Sense_HAT_B/IMU,-0.7716044388066593,-0.6360274407047688,0.009103043677868383,0.003580402240136978,-1.0,-1.0,-1.0,-1.0,-1.0,-1.0,-1.0,-1.0,-1.0,-0.0042610577441267805,0.0053263221801584755,-0.009587379924285256,0.0,0.0,0.0,0.0,0.0,0.0,0.0,0.0,0.0,-0.143701171875,-0.28740234375,10.005194091796875,0.0,0.0,0.0,0.0,0.0,0.0,0.0,0.0,0.0
1664959677.9324207,2652,1664959677,920134788,Waveshare_Sense_HAT_B/IMU,-0.7715711104230948,-0.6360677606129842,0.009095240117093489,0.003619679055986184,-1.0,-1.0,-1.0,-1.0,-1.0,-1.0,-1.0,-1.0,-1.0,-0.0026631610900792377,0.0002663161090079238,-0.012250541014364494,0.0,0.0,0.0,0.0,0.0,0.0,0.0,0.0,0.0,-0.1580712890625,-0.276624755859375,10.007589111328125,0.0,0.0,0.0,0.0,0.0,0.0,0.0,0.0,0.0
1664959677.9445002,2653,1664959677,932240115,Waveshare_Sense_HAT_B/IMU,-0.7714806494919172,-0.6361765235844957,0.009165623210240751,0.003609660737954542,-1.0,-1.0,-1.0,-1.0,-1.0,-1.0,-1.0,-1.0,-1.0,-0.0007989483270237714,-0.014381069886427884,-0.02609897868277653,0.0,0.0,0.0,0.0,0.0,0.0,0.0,0.0,0.0,-0.1484912109375,-0.28021728515625,10.0255517578125,0.0,0.0,0.0,0.0,0.0,0.0,0.0,0.0,0.0
1664959677.9566996,2654,1664959677,944349534,Waveshare_Sense_HAT_B/IMU,-0.7714087725120058,-0.6362622583750808,0.0092814269607939,0.0035636178995248034,-1.0,-1.0,-1.0,-1.0,-1.0,-1.0,-1.0,-1.0,-1.0,-0.0010652644360316951,-0.022636869265673522,-0.020772656502618055,0.0,0.0,0.0,0.0,0.0,0.0,0.0,0.0,0.0,-0.15208374023437501,-0.296982421875,10.02315673828125,0.0,0.0,0.0,0.0,0.0,0.0,0.0,0.0,0.0
1664959677.9687772,2655,1664959677,956523656,Waveshare_Sense_HAT_B/IMU,-0.7713551661923503,-0.6363255681880268,0.009406689346527332,0.0035345514700925217,-1.0,-1.0,-1.0,-1.0,-1.0,-1.0,-1.0,-1.0,-1.0,0.0013315805450396189,-0.021837920938649752,-0.016245282649483352,0.0,0.0,0.0,0.0,0.0,0.0,0.0,0.0,0.0,-0.162861328125,-0.3113525390625,10.012379150390625,0.0,0.0,0.0,0.0,0.0,0.0,0.0,0.0,0.0
1664959677.9808834,2656,1664959677,968634020,Waveshare_Sense_HAT_B/IMU,-0.7712871131754728,-0.6364063693818776,0.00956200070728571,0.0034190937536233393,-1.0,-1.0,-1.0,-1.0,-1.0,-1.0,-1.0,-1.0,-1.0,-0.006391586616190171,-0.034088461953014244,-0.019973708175594285,0.0,0.0,0.0,0.0,0.0,0.0,0.0,0.0,0.0,-0.17962646484375,-0.3113525390625,9.998009033203125,0.0,0.0,0.0,0.0,0.0,0.0,0.0,0.0,0.0
1664959677.9930108,2657,1664959677,980744106,Waveshare_Sense_HAT_B/IMU,-0.7712038455320337,-0.6365062693532051,0.00966523411392086,0.003313753188021435,-1.0,-1.0,-1.0,-1.0,-1.0,-1.0,-1.0,-1.0,-1.0,-0.010386328251309028,-0.026631610900792378,-0.02370213370170522,0.0,0.0,0.0,0.0,0.0,0.0,0.0,0.0,0.0,-0.17603393554687502,-0.31255004882812504,10.005194091796875,0.0,0.0,0.0,0.0,0.0,0.0,0.0,0.0,0.0
1664959678.0051532,2658,1664959677,992862174,Waveshare_Sense_HAT_B/IMU,-0.7711481443885582,-0.6365726520672456,0.009765145918079303,0.003231094451637018,-1.0,-1.0,-1.0,-1.0,-1.0,-1.0,-1.0,-1.0,-1.0,-0.009587379924285256,-0.02450108202872899,-0.0167779148674992,0.0,0.0,0.0,0.0,0.0,0.0,0.0,0.0,0.0,-0.16525634765625,-0.34727783203125,9.952503662109375,0.0,0.0,0.0,0.0,0.0,0.0,0.0,0.0,0.0
1664959678.0172489,2659,1664959678,5004685,Waveshare_Sense_HAT_B/IMU,-0.771139501530627,-0.6365822687650455,0.009839104557954689,0.003174317964628518,-1.0,-1.0,-1.0,-1.0,-1.0,-1.0,-1.0,-1.0,-1.0,-0.00905474770626941,-0.01890844373956259,-0.005060006071150552,0.0,0.0,0.0,0.0,0.0,0.0,0.0,0.0,0.0,-0.16166381835937502,-0.348475341796875,9.95130615234375,0.0,0.0,0.0,0.0,0.0,0.0,0.0,0.0,0.0
1664959678.029373,2660,1664959678,17108567,Waveshare_Sense_HAT_B/IMU,-0.771176595981265,-0.6365366627433257,0.009904958156700524,0.003102675982569491,-1.0,-1.0,-1.0,-1.0,-1.0,-1.0,-1.0,-1.0,-1.0,-0.011451592687340723,-0.019973708175594285,0.006125270507182247,0.0,0.0,0.0,0.0,0.0,0.0,0.0,0.0,0.0,-0.162861328125,-0.3400927734375,9.950108642578126,0.0,0.0,0.0,0.0,0.0,0.0,0.0,0.0,0.0
1664959678.041471,2661,1664959678,29216691,Waveshare_Sense_HAT_B/IMU,-0.7712499363619278,-0.6364472093594185,0.009952959090571173,0.0030698478256010837,-1.0,-1.0,-1.0,-1.0,-1.0,-1.0,-1.0,-1.0,-1.0,-0.007989483270237713,-0.013049489341388266,0.015180018213451656,0.0,0.0,0.0,0.0,0.0,0.0,0.0,0.0,0.0,-0.1772314453125,-0.3305126953125,9.942923583984376,0.0,0.0,0.0,0.0,0.0,0.0,0.0,0.0,0.0
1664959678.0535748,2662,1664959678,41319629,Waveshare_Sense_HAT_B/IMU,-0.7713274222318363,-0.6363525310245745,0.010012453562792623,0.0030355799217914444,-1.0,-1.0,-1.0,-1.0,-1.0,-1.0,-1.0,-1.0,-1.0,-0.0077231671612297895,-0.015180018213451656,0.015978966540475426,0.0,0.0,0.0,0.0,0.0,0.0,0.0,0.0,0.0,-0.17603393554687502,-0.34248779296875004,9.930948486328125,0.0,0.0,0.0,0.0,0.0,0.0,0.0,0.0,0.0
1664959678.0657005,2663,1664959678,53421307,Waveshare_Sense_HAT_B/IMU,-0.7713641236133248,-0.6363066132655855,0.010113407697031663,0.0030002835669321135,-1.0,-1.0,-1.0,-1.0,-1.0,-1.0,-1.0,-1.0,-1.0,-0.0031957933080950856,-0.020772656502618055,0.005858954398174323,0.0,0.0,0.0,0.0,0.0,0.0,0.0,0.0,0.0,-0.168848876953125,-0.33290771484375004,9.934541015625001,0.0,0.0,0.0,0.0,0.0,0.0,0.0,0.0,0.0
1664959678.0782027,2664,1664959678,65534264,Waveshare_Sense_HAT_B/IMU,-0.7714510672525716,-0.6362001686426803,0.010168228382208601,0.0030337082029079283,-1.0,-1.0,-1.0,-1.0,-1.0,-1.0,-1.0,-1.0,-1.0,0.0002663161090079238,-0.007989483270237713,0.018642127630554665,0.0,0.0,0.0,0.0,0.0,0.0,0.0,0.0,0.0,-0.1580712890625,-0.346080322265625,9.9393310546875,0.0,0.0,0.0,0.0,0.0,0.0,0.0,0.0,0.0
1664959678.0899317,2665,1664959678,77663405,Waveshare_Sense_HAT_B/IMU,-0.7715725164173186,-0.6360521430616253,0.010202140304382783,0.003072384964495641,-1.0,-1.0,-1.0,-1.0,-1.0,-1.0,-1.0,-1.0,-1.0,-0.0007989483270237714,-0.004527373853134705,0.0268979270098003,0.0,0.0,0.0,0.0,0.0,0.0,0.0,0.0,0.0,-0.17962646484375,-0.335302734375,9.952503662109375,0.0,0.0,0.0,0.0,0.0,0.0,0.0,0.0,0.0
1664959678.102023,2666,1664959678,89783732,Waveshare_Sense_HAT_B/IMU,-0.7717121649209568,-0.6358813011131191,0.01028798429321515,0.003076164312810759,-1.0,-1.0,-1.0,-1.0,-1.0,-1.0,-1.0,-1.0,-1.0,-0.0013315805450396189,-0.014381069886427884,0.03169161697194293,0.0,0.0,0.0,0.0,0.0,0.0,0.0,0.0,0.0,-0.18082397460937502,-0.370030517578125,9.964478759765626,0.0,0.0,0.0,0.0,0.0,0.0,0.0,0.0,0.0
1664959678.1141443,2667,1664959678,101889873,Waveshare_Sense_HAT_B/IMU,-0.7717949660921012,-0.6357796912922996,0.010352942751222673,0.0030872368795411284,-1.0,-1.0,-1.0,-1.0,-1.0,-1.0,-1.0,-1.0,-1.0,-0.0026631610900792377,-0.010386328251309028,0.01757686319452297,0.0,0.0,0.0,0.0,0.0,0.0,0.0,0.0,0.0,-0.18920654296875,-0.374820556640625,9.96567626953125,0.0,0.0,0.0,0.0,0.0,0.0,0.0,0.0,0.0
1664959678.1263022,2668,1664959678,113991515,Waveshare_Sense_HAT_B/IMU,-0.7718362946204779,-0.6357291422267753,0.010355690421034774,0.0031546324735504234,-1.0,-1.0,-1.0,-1.0,-1.0,-1.0,-1.0,-1.0,-1.0,-0.0029294771990871615,0.0021305288720633903,0.006924218834206019,0.0,0.0,0.0,0.0,0.0,0.0,0.0,0.0,0.0,-0.17483642578125,-0.39398071289062503,9.9776513671875,0.0,0.0,0.0,0.0,0.0,0.0,0.0,0.0,0.0
1664959678.138437,2669,1664959678,126118231,Waveshare_Sense_HAT_B/IMU,-0.7718381674144797,-0.6357263552166666,0.010380134901411153,0.0031776413609495833,-1.0,-1.0,-1.0,-1.0,-1.0,-1.0,-1.0,-1.0,-1.0,-0.0066579027251980945,-0.0055926382891664,-0.0029294771990871615,0.0,0.0,0.0,0.0,0.0,0.0,0.0,0.0,0.0,-0.16645385742187502,-0.40236328125000004,9.957293701171876,0.0,0.0,0.0,0.0,0.0,0.0,0.0,0.0,0.0
1664959678.1505644,2670,1664959678,138283834,Waveshare_Sense_HAT_B/IMU,-0.7717849508800357,-0.6357911774628853,0.010351298078721694,0.003227829540769023,-1.0,-1.0,-1.0,-1.0,-1.0,-1.0,-1.0,-1.0,-1.0,-0.007989483270237713,0.003728425526110933,-0.017044230976507122,0.0,0.0,0.0,0.0,0.0,0.0,0.0,0.0,0.0,-0.173638916015625,-0.384400634765625,9.956096191406251,0.0,0.0,0.0,0.0,0.0,0.0,0.0,0.0,0.0
1664959678.162684,2671,1664959678,150398494,Waveshare_Sense_HAT_B/IMU,-0.7717675212154288,-0.6358126647550341,0.010334413805986467,0.0032168968559940637,-1.0,-1.0,-1.0,-1.0,-1.0,-1.0,-1.0,-1.0,-1.0,-0.012783173232380343,-0.0042610577441267805,-0.008255799379245638,0.0,0.0,0.0,0.0,0.0,0.0,0.0,0.0,0.0,-0.1772314453125,-0.348475341796875,9.956096191406251,0.0,0.0,0.0,0.0,0.0,0.0,0.0,0.0,0.0
1664959678.1747825,2672,1664959678,162514636,Waveshare_Sense_HAT_B/IMU,-0.7717521209860335,-0.6358311269819917,0.01035051215532132,0.003210702803354259,-1.0,-1.0,-1.0,-1.0,-1.0,-1.0,-1.0,-1.0,-1.0,-0.008522115488253561,-0.008522115488253561,-0.008255799379245638,0.0,0.0,0.0,0.0,0.0,0.0,0.0,0.0,0.0,-0.18561401367187502,-0.33410522460937503,9.96567626953125,0.0,0.0,0.0,0.0,0.0,0.0,0.0,0.0,0.0
1664959678.186891,2673,1664959678,174631611,Waveshare_Sense_HAT_B/IMU,-0.7716955903320479,-0.6358986541475129,0.01041777626278799,0.0032074059911389916,-1.0,-1.0,-1.0,-1.0,-1.0,-1.0,-1.0,-1.0,-1.0,-0.0034621094171030094,-0.014647385995435807,-0.01810949541253882,0.0,0.0,0.0,0.0,0.0,0.0,0.0,0.0,0.0,-0.17004638671875,-0.348475341796875,9.953701171875,0.0,0.0,0.0,0.0,0.0,0.0,0.0,0.0,0.0
1664959678.1990204,2674,1664959678,186745974,Waveshare_Sense_HAT_B/IMU,-0.7715908278640886,-0.6360251866471222,0.010453306161310252,0.0032069762708122652,-1.0,-1.0,-1.0,-1.0,-1.0,-1.0,-1.0,-1.0,-1.0,-0.004793689962142628,-0.009587379924285256,-0.030093720317895388,0.0,0.0,0.0,0.0,0.0,0.0,0.0,0.0,0.0,-0.18202148437500001,-0.317340087890625,9.945318603515625,0.0,0.0,0.0,0.0,0.0,0.0,0.0,0.0,0.0
1664959678.2111487,2675,1664959678,198861560,Waveshare_Sense_HAT_B/IMU,-0.7715340737822394,-0.6360928370526697,0.010536281432082103,0.0031721312790835158,-1.0,-1.0,-1.0,-1.0,-1.0,-1.0,-1.0,-1.0,-1.0,-0.0031957933080950856,-0.01890844373956259,-0.01810949541253882,0.0,0.0,0.0,0.0,0.0,0.0,0.0,0.0,0.0,-0.18920654296875,-0.29458740234375,9.94412109375,0.0,0.0,0.0,0.0,0.0,0.0,0.0,0.0,0.0
1664959678.2232413,2676,1664959678,211004665,Waveshare_Sense_HAT_B/IMU,-0.7715105572224169,-0.6361194871557305,0.010676031521999621,0.0030790430376784234,-1.0,-1.0,-1.0,-1.0,-1.0,-1.0,-1.0,-1.0,-1.0,-0.003994741635118856,-0.031425300862935004,-0.009587379924285256,0.0,0.0,0.0,0.0,0.0,0.0,0.0,0.0,0.0,-0.199984130859375,-0.28261230468750004,9.94651611328125,0.0,0.0,0.0,0.0,0.0,0.0,0.0,0.0,0.0
1664959678.235369,2677,1664959678,223110806,Waveshare_Sense_HAT_B/IMU,-0.7715323824479838,-0.6360917573271951,0.010759013000759024,0.0030500383256802936,-1.0,-1.0,-1.0,-1.0,-1.0,-1.0,-1.0,-1.0,-1.0,-0.0005326322180158476,-0.01810949541253882,0.0015978966540475428,0.0,0.0,0.0,0.0,0.0,0.0,0.0,0.0,0.0,-0.197589111328125,-0.25626708984375,9.97046630859375,0.0,0.0,0.0,0.0,0.0,0.0,0.0,0.0,0.0
1664959678.247471,2678,1664959678,235218411,Waveshare_Sense_HAT_B/IMU,-0.7716029452448476,-0.63600463068232,0.010851758246708492,0.003040391928209084,-1.0,-1.0,-1.0,-1.0,-1.0,-1.0,-1.0,-1.0,-1.0,0.002396844981071314,-0.018642127630554665,0.013582121559404112,0.0,0.0,0.0,0.0,0.0,0.0,0.0,0.0,0.0,-0.18202148437500001,-0.264649658203125,9.980046386718751,0.0,0.0,0.0,0.0,0.0,0.0,0.0,0.0,0.0
1664959678.2595973,2679,1664959678,247321849,Waveshare_Sense_HAT_B/IMU,-0.7716203799464293,-0.6359821520764048,0.010928107599632095,0.0030443317630314743,-1.0,-1.0,-1.0,-1.0,-1.0,-1.0,-1.0,-1.0,-1.0,0.0005326322180158476,-0.014647385995435807,0.0005326322180158476,0.0,0.0,0.0,0.0,0.0,0.0,0.0,0.0,0.0,-0.183218994140625,-0.30895751953125,9.978848876953126,0.0,0.0,0.0,0.0,0.0,0.0,0.0,0.0,0.0
1664959678.2717118,2680,1664959678,259453101,Waveshare_Sense_HAT_B/IMU,-0.7716131688304625,-0.6359900174696661,0.010981319293644619,0.0030374319608859877,-1.0,-1.0,-1.0,-1.0,-1.0,-1.0,-1.0,-1.0,-1.0,-0.0029294771990871615,-0.011717908796348646,-0.005060006071150552,0.0,0.0,0.0,0.0,0.0,0.0,0.0,0.0,0.0,-0.18082397460937502,-0.31255004882812504,9.97525634765625,0.0,0.0,0.0,0.0,0.0,0.0,0.0,0.0,0.0
1664959678.28381,2681,1664959678,271564872,Waveshare_Sense_HAT_B/IMU,-0.771652088173876,-0.63594264201291,0.01099183275750461,0.003031583607299192,-1.0,-1.0,-1.0,-1.0,-1.0,-1.0,-1.0,-1.0,-1.0,-0.006924218834206019,-0.006125270507182247,0.006391586616190171,0.0,0.0,0.0,0.0,0.0,0.0,0.0,0.0,0.0,-0.18681152343750002,-0.30895751953125,9.969268798828125,0.0,0.0,0.0,0.0,0.0,0.0,0.0,0.0,0.0
1664959678.2959077,2682,1664959678,283666440,Waveshare_Sense_HAT_B/IMU,-0.7717146376327596,-0.6358664606716102,0.01100638369631649,0.0030367374313829834,-1.0,-1.0,-1.0,-1.0,-1.0,-1.0,-1.0,-1.0,-1.0,-0.005060006071150552,-0.007989483270237713,0.011451592687340723,0.0,0.0,0.0,0.0,0.0,0.0,0.0,0.0,0.0,-0.1676513671875,-0.296982421875,9.974058837890626,0.0,0.0,0.0,0.0,0.0,0.0,0.0,0.0,0.0
1664959678.3080618,2683,1664959678,295774489,Waveshare_Sense_HAT_B/IMU,-0.7717264727113702,-0.6358516010376819,0.011021066448636182,0.003086886557409786,-1.0,-1.0,-1.0,-1.0,-1.0,-1.0,-1.0,-1.0,-1.0,-0.0005326322180158476,-0.003728425526110933,-0.0010652644360316951,0.0,0.0,0.0,0.0,0.0,0.0,0.0,0.0,0.0,-0.15328125,-0.3209326171875,9.96088623046875,0.0,0.0,0.0,0.0,0.0,0.0,0.0,0.0,0.0
1664959678.3201807,2684,1664959678,307889001,Waveshare_Sense_HAT_B/IMU,-0.7717257988897714,-0.6358520239702614,0.011017240091657299,0.003180465630822524,-1.0,-1.0,-1.0,-1.0,-1.0,-1.0,-1.0,-1.0,-1.0,0.0031957933080950856,0.0031957933080950856,-0.003994741635118856,0.0,0.0,0.0,0.0,0.0,0.0,0.0,0.0,0.0,-0.144898681640625,-0.319735107421875,9.947713623046875,0.0,0.0,0.0,0.0,0.0,0.0,0.0,0.0,0.0
1664959678.332297,2685,1664959678,320027735,Waveshare_Sense_HAT_B/IMU,-0.7717403729325525,-0.6358346725266145,0.010976981002131254,0.0032514438295336632,-1.0,-1.0,-1.0,-1.0,-1.0,-1.0,-1.0,-1.0,-1.0,-0.0042610577441267805,0.0053263221801584755,-0.0005326322180158476,0.0,0.0,0.0,0.0,0.0,0.0,0.0,0.0,0.0,-0.15567626953125,-0.33769775390625,9.940528564453125,0.0,0.0,0.0,0.0,0.0,0.0,0.0,0.0,0.0
1664959678.344388,2686,1664959678,332138191,Waveshare_Sense_HAT_B/IMU,-0.7717379130920955,-0.6358388405677787,0.010909326680296491,0.0032479090292820856,-1.0,-1.0,-1.0,-1.0,-1.0,-1.0,-1.0,-1.0,-1.0,-0.015712650431467502,0.0010652644360316951,-0.005060006071150552,0.0,0.0,0.0,0.0,0.0,0.0,0.0,0.0,0.0,-0.162861328125,-0.32332763671875003,9.953701171875,0.0,0.0,0.0,0.0,0.0,0.0,0.0,0.0,0.0
1664959678.3565273,2687,1664959678,344240944,Waveshare_Sense_HAT_B/IMU,-0.7717866723526703,-0.6357811061715346,0.01081759537409027,0.00327063364110652,-1.0,-1.0,-1.0,-1.0,-1.0,-1.0,-1.0,-1.0,-1.0,-0.015180018213451656,0.0066579027251980945,0.007456851052221866,0.0,0.0,0.0,0.0,0.0,0.0,0.0,0.0,0.0,-0.1676513671875,-0.32572265625,9.935738525390626,0.0,0.0,0.0,0.0,0.0,0.0,0.0,0.0,0.0
1664959678.3686352,2688,1664959678,356359012,Waveshare_Sense_HAT_B/IMU,-0.7718524247139806,-0.6357027055177538,0.010730816214054683,0.003279366392628943,-1.0,-1.0,-1.0,-1.0,-1.0,-1.0,-1.0,-1.0,-1.0,-0.016245282649483352,0.004527373853134705,0.011717908796348646,0.0,0.0,0.0,0.0,0.0,0.0,0.0,0.0,0.0,-0.1676513671875,-0.3209326171875,9.935738525390626,0.0,0.0,0.0,0.0,0.0,0.0,0.0,0.0,0.0
1664959678.3807583,2689,1664959678,368472431,Waveshare_Sense_HAT_B/IMU,-0.771853917738367,-0.6357023802166132,0.010634786644991429,0.0033037511834543756,-1.0,-1.0,-1.0,-1.0,-1.0,-1.0,-1.0,-1.0,-1.0,-0.015446334322459579,0.007190534943213942,-0.004527373853134705,0.0,0.0,0.0,0.0,0.0,0.0,0.0,0.0,0.0,-0.17004638671875,-0.32213012695312504,9.954898681640625,0.0,0.0,0.0,0.0,0.0,0.0,0.0,0.0,0.0
1664959678.392918,2690,1664959678,380598943,Waveshare_Sense_HAT_B/IMU,-0.7718629626191431,-0.6356918449488274,0.01059997788997728,0.003329515143014965,-1.0,-1.0,-1.0,-1.0,-1.0,-1.0,-1.0,-1.0,-1.0,-0.009587379924285256,0.0013315805450396189,-0.0021305288720633903,0.0,0.0,0.0,0.0,0.0,0.0,0.0,0.0,0.0,-0.188009033203125,-0.33769775390625,9.95130615234375,0.0,0.0,0.0,0.0,0.0,0.0,0.0,0.0,0.0
1664959678.4050012,2691,1664959678,392764139,Waveshare_Sense_HAT_B/IMU,-0.7719275455003327,-0.6356147326451969,0.010508722993776056,0.0033679197209995483,-1.0,-1.0,-1.0,-1.0,-1.0,-1.0,-1.0,-1.0,-1.0,-0.013848437668412037,0.00905474770626941,0.011717908796348646,0.0,0.0,0.0,0.0,0.0,0.0,0.0,0.0,0.0,-0.17483642578125,-0.34129028320312504,9.96567626953125,0.0,0.0,0.0,0.0,0.0,0.0,0.0,0.0,0.0
1664959678.4171154,2692,1664959678,404869484,Waveshare_Sense_HAT_B/IMU,-0.7719711612202286,-0.6355637634272266,0.010373800820149234,0.0034078026726918377,-1.0,-1.0,-1.0,-1.0,-1.0,-1.0,-1.0,-1.0,-1.0,-0.018642127630554665,0.013848437668412037,0.006125270507182247,0.0,0.0,0.0,0.0,0.0,0.0,0.0,0.0,0.0,-0.164058837890625,-0.3496728515625,9.98483642578125,0.0,0.0,0.0,0.0,0.0,0.0,0.0,0.0,0.0
1664959678.4292636,2693,1664959678,416973904,Waveshare_Sense_HAT_B/IMU,-0.7719697672497885,-0.6355669497858757,0.010272745703967629,0.003435329371001962,-1.0,-1.0,-1.0,-1.0,-1.0,-1.0,-1.0,-1.0,-1.0,-0.015712650431467502,0.008788431597261484,-0.004793689962142628,0.0,0.0,0.0,0.0,0.0,0.0,0.0,0.0,0.0,-0.1580712890625,-0.329315185546875,9.97046630859375,0.0,0.0,0.0,0.0,0.0,0.0,0.0,0.0,0.0
1664959678.4413798,2694,1664959678,429087490,Waveshare_Sense_HAT_B/IMU,-0.771946740131417,-0.635595271692456,0.010214428962780714,0.0035420959382569,-1.0,-1.0,-1.0,-1.0,-1.0,-1.0,-1.0,-1.0,-1.0,-0.0034621094171030094,0.011451592687340723,-0.010120012142301104,0.0,0.0,0.0,0.0,0.0,0.0,0.0,0.0,0.0,-0.1484912109375,-0.3688330078125,9.938133544921875,0.0,0.0,0.0,0.0,0.0,0.0,0.0,0.0,0.0
1664959678.4534926,2695,1664959678,441227186,Waveshare_Sense_HAT_B/IMU,-0.7719130824712457,-0.6356361773002424,0.010158613610972166,0.003694020354286026,-1.0,-1.0,-1.0,-1.0,-1.0,-1.0,-1.0,-1.0,-1.0,0.0026631610900792377,0.015712650431467502,-0.012516857123372417,0.0,0.0,0.0,0.0,0.0,0.0,0.0,0.0,0.0,-0.135318603515625,-0.367635498046875,9.950108642578126,0.0,0.0,0.0,0.0,0.0,0.0,0.0,0.0,0.0
1664959678.4656234,2696,1664959678,453340402,Waveshare_Sense_HAT_B/IMU,-0.7718698430361878,-0.6356875038202057,0.010148985164795583,0.00391675864094464,-1.0,-1.0,-1.0,-1.0,-1.0,-1.0,-1.0,-1.0,-1.0,0.014381069886427884,0.017044230976507122,-0.015180018213451656,0.0,0.0,0.0,0.0,0.0,0.0,0.0,0.0,0.0,-0.143701171875,-0.40236328125000004,9.95130615234375,0.0,0.0,0.0,0.0,0.0,0.0,0.0,0.0,0.0
1664959678.4776933,2697,1664959678,465453673,Waveshare_Sense_HAT_B/IMU,-0.7718372569001121,-0.6357250291402272,0.010208365891353498,0.004089676196917189,-1.0,-1.0,-1.0,-1.0,-1.0,-1.0,-1.0,-1.0,-1.0,0.015712650431467502,0.003728425526110933,-0.012250541014364494,0.0,0.0,0.0,0.0,0.0,0.0,0.0,0.0,0.0,-0.144898681640625,-0.39517822265625,9.921368408203126,0.0,0.0,0.0,0.0,0.0,0.0,0.0,0.0,0.0
1664959678.4897923,2698,1664959678,477551852,Waveshare_Sense_HAT_B/IMU,-0.771832339841537,-0.6357296616778392,0.010231957898683672,0.004235973946804942,-1.0,-1.0,-1.0,-1.0,-1.0,-1.0,-1.0,-1.0,-1.0,0.009321063815277333,0.0053263221801584755,-0.005060006071150552,0.0,0.0,0.0,0.0,0.0,0.0,0.0,0.0,0.0,-0.1293310546875,-0.39158569335937504,9.928553466796876,0.0,0.0,0.0,0.0,0.0,0.0,0.0,0.0,0.0
1664959678.502166,2699,1664959678,489649401,Waveshare_Sense_HAT_B/IMU,-0.7717945548860313,-0.635773486596376,0.010324614313858409,0.004317537334030323,-1.0,-1.0,-1.0,-1.0,-1.0,-1.0,-1.0,-1.0,-1.0,0.008522115488253561,-0.008522115488253561,-0.012783173232380343,0.0,0.0,0.0,0.0,0.0,0.0,0.0,0.0,0.0,-0.143701171875,-0.39398071289062503,9.930948486328125,0.0,0.0,0.0,0.0,0.0,0.0,0.0,0.0,0.0
1664959678.5141625,2700,1664959678,501832171,Waveshare_Sense_HAT_B/IMU,-0.7717352290809775,-0.6358429309319574,0.010471005364043396,0.004342974309821625,-1.0,-1.0,-1.0,-1.0,-1.0,-1.0,-1.0,-1.0,-1.0,0.007989483270237713,-0.02103897261162598,-0.018375811521546742,0.0,0.0,0.0,0.0,0.0,0.0,0.0,0.0,0.0,-0.15687377929687502,-0.370030517578125,9.90340576171875,0.0,0.0,0.0,0.0,0.0,0.0,0.0,0.0,0.0
1664959678.5263,2701,1664959678,513984016,Waveshare_Sense_HAT_B/IMU,-0.7716918041229286,-0.6358928221705957,0.010635136222197436,0.0043556904102790795,-1.0,-1.0,-1.0,-1.0,-1.0,-1.0,-1.0,-1.0,-1.0,0.006924218834206019,-0.02450108202872899,-0.014647385995435807,0.0,0.0,0.0,0.0,0.0,0.0,0.0,0.0,0.0,-0.17244140625,-0.396375732421875,9.909393310546875,0.0,0.0,0.0,0.0,0.0,0.0,0.0,0.0,0.0
1664959678.5383656,2702,1664959678,526115361,Waveshare_Sense_HAT_B/IMU,-0.7716344997867903,-0.635959374090623,0.010820033038550106,0.004335911680094341,-1.0,-1.0,-1.0,-1.0,-1.0,-1.0,-1.0,-1.0,-1.0,0.006391586616190171,-0.03115898475392708,-0.01810949541253882,0.0,0.0,0.0,0.0,0.0,0.0,0.0,0.0,0.0,-0.162861328125,-0.3688330078125,9.934541015625001,0.0,0.0,0.0,0.0,0.0,0.0,0.0,0.0,0.0
1664959678.5504968,2703,1664959678,538221818,Waveshare_Sense_HAT_B/IMU,-0.7715767353735571,-0.6360262843506226,0.011045388512355413,0.00423159993810357,-1.0,-1.0,-1.0,-1.0,-1.0,-1.0,-1.0,-1.0,-1.0,0.002396844981071314,-0.04420847409531535,-0.017843179303530892,0.0,0.0,0.0,0.0,0.0,0.0,0.0,0.0,0.0,-0.17004638671875,-0.32332763671875003,9.938133544921875,0.0,0.0,0.0,0.0,0.0,0.0,0.0,0.0,0.0
1664959678.562713,2704,1664959678,550335348,Waveshare_Sense_HAT_B/IMU,-0.7715392194997428,-0.6360698542819371,0.011220947639612764,0.00405753392494889,-1.0,-1.0,-1.0,-1.0,-1.0,-1.0,-1.0,-1.0,-1.0,-0.00985369603329318,-0.045273738531347044,-0.012516857123372417,0.0,0.0,0.0,0.0,0.0,0.0,0.0,0.0,0.0,-0.1580712890625,-0.298179931640625,9.947713623046875,0.0,0.0,0.0,0.0,0.0,0.0,0.0,0.0,0.0
1664959678.5747979,2705,1664959678,562547747,Waveshare_Sense_HAT_B/IMU,-0.7715229665409757,-0.6360888656876668,0.011308795405432134,0.0039215041078465235,-1.0,-1.0,-1.0,-1.0,-1.0,-1.0,-1.0,-1.0,-1.0,-0.013848437668412037,-0.03115898475392708,-0.007456851052221866,0.0,0.0,0.0,0.0,0.0,0.0,0.0,0.0,0.0,-0.15088623046875002,-0.29338989257812503,9.971663818359376,0.0,0.0,0.0,0.0,0.0,0.0,0.0,0.0,0.0
1664959678.5869007,2706,1664959678,574652945,Waveshare_Sense_HAT_B/IMU,-0.7714501466044789,-0.6361770172233663,0.011357895147017226,0.0038042448052148007,-1.0,-1.0,-1.0,-1.0,-1.0,-1.0,-1.0,-1.0,-1.0,-0.013582121559404112,-0.023968449810713142,-0.021837920938649752,0.0,0.0,0.0,0.0,0.0,0.0,0.0,0.0,0.0,-0.164058837890625,-0.250279541015625,9.972861328125001,0.0,0.0,0.0,0.0,0.0,0.0,0.0,0.0,0.0
1664959678.598999,2707,1664959678,586757327,Waveshare_Sense_HAT_B/IMU,-0.7713859081097312,-0.6362544912754701,0.011413008441379888,0.003707605674153234,-1.0,-1.0,-1.0,-1.0,-1.0,-1.0,-1.0,-1.0,-1.0,-0.010120012142301104,-0.02343581759269729,-0.019973708175594285,0.0,0.0,0.0,0.0,0.0,0.0,0.0,0.0,0.0,-0.159268798828125,-0.239501953125,9.97046630859375,0.0,0.0,0.0,0.0,0.0,0.0,0.0,0.0,0.0
1664959678.6111987,2708,1664959678,598861265,Waveshare_Sense_HAT_B/IMU,-0.7713540936354564,-0.6362928378295536,0.011442455985023773,0.003654717453936901,-1.0,-1.0,-1.0,-1.0,-1.0,-1.0,-1.0,-1.0,-1.0,-0.007989483270237713,-0.015180018213451656,-0.011984224905356571,0.0,0.0,0.0,0.0,0.0,0.0,0.0,0.0,0.0,-0.17483642578125,-0.25387207031250003,9.981243896484376,0.0,0.0,0.0,0.0,0.0,0.0,0.0,0.0,0.0
1664959678.6232867,2709,1664959678,611040202,Waveshare_Sense_HAT_B/IMU,-0.771345652820832,-0.6363027230139637,0.011467243520328674,0.0036374284137412095,-1.0,-1.0,-1.0,-1.0,-1.0,-1.0,-1.0,-1.0,-1.0,-0.003728425526110933,-0.012783173232380343,-0.006391586616190171,0.0,0.0,0.0,0.0,0.0,0.0,0.0,0.0,0.0,-0.14609619140625002,-0.2442919921875,9.995614013671876,0.0,0.0,0.0,0.0,0.0,0.0,0.0,0.0,0.0
1664959678.6354141,2710,1664959678,623150251,Waveshare_Sense_HAT_B/IMU,-0.7714010088594935,-0.6362358858823239,0.011456946339256698,0.003622074912205584,-1.0,-1.0,-1.0,-1.0,-1.0,-1.0,-1.0,-1.0,-1.0,-0.0066579027251980945,-0.0077231671612297895,0.009587379924285256,0.0,0.0,0.0,0.0,0.0,0.0,0.0,0.0,0.0,-0.15208374023437501,-0.238304443359375,9.988428955078126,0.0,0.0,0.0,0.0,0.0,0.0,0.0,0.0,0.0
1664959678.6475255,2711,1664959678,635260170,Waveshare_Sense_HAT_B/IMU,-0.7714594963590675,-0.6361650849354398,0.01145127501074247,0.0036191832126443667,-1.0,-1.0,-1.0,-1.0,-1.0,-1.0,-1.0,-1.0,-1.0,-0.006924218834206019,-0.008255799379245638,0.00985369603329318,0.0,0.0,0.0,0.0,0.0,0.0,0.0,0.0,0.0,-0.147293701171875,-0.28021728515625,9.988428955078126,0.0,0.0,0.0,0.0,0.0,0.0,0.0,0.0,0.0
1664959678.6597006,2712,1664959678,647367164,Waveshare_Sense_HAT_B/IMU,-0.771502644139129,-0.6361123479789663,0.011484955417582302,0.0035842201488449498,-1.0,-1.0,-1.0,-1.0,-1.0,-1.0,-1.0,-1.0,-1.0,-0.006924218834206019,-0.016511598758491276,0.005858954398174323,0.0,0.0,0.0,0.0,0.0,0.0,0.0,0.0,0.0,-0.154478759765625,-0.276624755859375,9.959688720703125,0.0,0.0,0.0,0.0,0.0,0.0,0.0,0.0,0.0
1664959678.6718278,2713,1664959678,659505286,Waveshare_Sense_HAT_B/IMU,-0.7715415670799615,-0.6360637222959218,0.011591753020048032,0.0034903737301598976,-1.0,-1.0,-1.0,-1.0,-1.0,-1.0,-1.0,-1.0,-1.0,-0.006924218834206019,-0.03115898475392708,0.0053263221801584755,0.0,0.0,0.0,0.0,0.0,0.0,0.0,0.0,0.0,-0.154478759765625,-0.28261230468750004,9.94412109375,0.0,0.0,0.0,0.0,0.0,0.0,0.0,0.0,0.0
1664959678.6839492,2714,1664959678,671668686,Waveshare_Sense_HAT_B/IMU,-0.7715787286012094,-0.6360166341595096,0.01173470089088053,0.0033768976223024993,-1.0,-1.0,-1.0,-1.0,-1.0,-1.0,-1.0,-1.0,-1.0,-0.007456851052221866,-0.038349519697141024,0.005060006071150552,0.0,0.0,0.0,0.0,0.0,0.0,0.0,0.0,0.0,-0.142503662109375,-0.3209326171875,9.954898681640625,0.0,0.0,0.0,0.0,0.0,0.0,0.0,0.0,0.0
1664959678.696037,2715,1664959678,683788680,Waveshare_Sense_HAT_B/IMU,-0.771588584531153,-0.6360027253942446,0.011876364368559246,0.0032467648036216814,-1.0,-1.0,-1.0,-1.0,-1.0,-1.0,-1.0,-1.0,-1.0,-0.00985369603329318,-0.03781688747912518,-0.0018642127630554665,0.0,0.0,0.0,0.0,0.0,0.0,0.0,0.0,0.0,-0.192799072265625,-0.32332763671875003,9.938133544921875,0.0,0.0,0.0,0.0,0.0,0.0,0.0,0.0,0.0
1664959678.708177,2716,1664959678,695893544,Waveshare_Sense_HAT_B/IMU,-0.7716132587538356,-0.635970848853513,0.012007157976625153,0.00314427752481188,-1.0,-1.0,-1.0,-1.0,-1.0,-1.0,-1.0,-1.0,-1.0,-0.008522115488253561,-0.03542004249805386,0.0018642127630554665,0.0,0.0,0.0,0.0,0.0,0.0,0.0,0.0,0.0,-0.15687377929687502,-0.3448828125,9.9393310546875,0.0,0.0,0.0,0.0,0.0,0.0,0.0,0.0,0.0
1664959678.720323,2717,1664959678,708021704,Waveshare_Sense_HAT_B/IMU,-0.7716390664835135,-0.6359379462278749,0.012123614437769676,0.0030162222876386918,-1.0,-1.0,-1.0,-1.0,-1.0,-1.0,-1.0,-1.0,-1.0,-0.013049489341388266,-0.03542004249805386,0.0021305288720633903,0.0,0.0,0.0,0.0,0.0,0.0,0.0,0.0,0.0,-0.178428955078125,-0.34248779296875004,9.930948486328125,0.0,0.0,0.0,0.0,0.0,0.0,0.0,0.0,0.0
1664959678.7324355,2718,1664959678,720168011,Waveshare_Sense_HAT_B/IMU,-0.7716670902198747,-0.6359027153768619,0.012213406056560754,0.002910525798370831,-1.0,-1.0,-1.0,-1.0,-1.0,-1.0,-1.0,-1.0,-1.0,-0.013582121559404112,-0.029294771990871615,0.0021305288720633903,0.0,0.0,0.0,0.0,0.0,0.0,0.0,0.0,0.0,-0.21315673828125,-0.348475341796875,9.941726074218751,0.0,0.0,0.0,0.0,0.0,0.0,0.0,0.0,0.0
1664959678.7445471,2719,1664959678,732284560,Waveshare_Sense_HAT_B/IMU,-0.7716853292788244,-0.6358803244683846,0.01224309230569006,0.002841165361040603,-1.0,-1.0,-1.0,-1.0,-1.0,-1.0,-1.0,-1.0,-1.0,-0.014381069886427884,-0.017843179303530892,-0.0002663161090079238,0.0,0.0,0.0,0.0,0.0,0.0,0.0,0.0,0.0,-0.21195922851562501,-0.33410522460937503,9.954898681640625,0.0,0.0,0.0,0.0,0.0,0.0,0.0,0.0,0.0
1664959678.7566884,2720,1664959678,744389591,Waveshare_Sense_HAT_B/IMU,-0.7717209068682107,-0.6358379854123091,0.012201441867164079,0.0028324946045932336,-1.0,-1.0,-1.0,-1.0,-1.0,-1.0,-1.0,-1.0,-1.0,-0.013848437668412037,-0.0026631610900792377,0.003728425526110933,0.0,0.0,0.0,0.0,0.0,0.0,0.0,0.0,0.0,-0.22273681640625,-0.326920166015625,9.981243896484376,0.0,0.0,0.0,0.0,0.0,0.0,0.0,0.0,0.0
1664959678.7687707,2721,1664959678,756515343,Waveshare_Sense_HAT_B/IMU,-0.7717442492621739,-0.6358108140385144,0.012138954652674477,0.0028404686911611523,-1.0,-1.0,-1.0,-1.0,-1.0,-1.0,-1.0,-1.0,-1.0,-0.011984224905356571,0.002396844981071314,0.0005326322180158476,0.0,0.0,0.0,0.0,0.0,0.0,0.0,0.0,0.0,-0.23710693359375,-0.28500732421875,9.98244140625,0.0,0.0,0.0,0.0,0.0,0.0,0.0,0.0,0.0
1664959678.7808812,2722,1664959678,768620559,Waveshare_Sense_HAT_B/IMU,-0.7717848286398046,-0.6357645436898519,0.011977643733299058,0.0028564521456030043,-1.0,-1.0,-1.0,-1.0,-1.0,-1.0,-1.0,-1.0,-1.0,-0.021837920938649752,0.015180018213451656,0.0042610577441267805,0.0,0.0,0.0,0.0,0.0,0.0,0.0,0.0,0.0,-0.24189697265625001,-0.296982421875,9.969268798828125,0.0,0.0,0.0,0.0,0.0,0.0,0.0,0.0,0.0
1664959678.79303,2723,1664959678,780728682,Waveshare_Sense_HAT_B/IMU,-0.7718606228575573,-0.6356761378016902,0.011770352287745535,0.002912991330676433,-1.0,-1.0,-1.0,-1.0,-1.0,-1.0,-1.0,-1.0,-1.0,-0.022104237047657675,0.023968449810713142,0.013315805450396189,0.0,0.0,0.0,0.0,0.0,0.0,0.0,0.0,0.0,-0.204774169921875,-0.31374755859375003,9.986033935546876,0.0,0.0,0.0,0.0,0.0,0.0,0.0,0.0,0.0
1664959678.805112,2724,1664959678,792870916,Waveshare_Sense_HAT_B/IMU,-0.7718947014405488,-0.6356378360313728,0.01159965695905166,0.0029256198986835607,-1.0,-1.0,-1.0,-1.0,-1.0,-1.0,-1.0,-1.0,-1.0,-0.02370213370170522,0.017044230976507122,0.0031957933080950856,0.0,0.0,0.0,0.0,0.0,0.0,0.0,0.0,0.0,-0.239501953125,-0.3113525390625,9.995614013671876,0.0,0.0,0.0,0.0,0.0,0.0,0.0,0.0,0.0
1664959678.817216,2725,1664959678,804973206,Waveshare_Sense_HAT_B/IMU,-0.7719059395608455,-0.6356267730100211,0.01145737119857415,0.002924816023830899,-1.0,-1.0,-1.0,-1.0,-1.0,-1.0,-1.0,-1.0,-1.0,-0.022636869265673522,0.012516857123372417,-0.0021305288720633903,0.0,0.0,0.0,0.0,0.0,0.0,0.0,0.0,0.0,-0.229921875,-0.317340087890625,10.007589111328125,0.0,0.0,0.0,0.0,0.0,0.0,0.0,0.0,0.0
1664959678.8293417,2726,1664959678,817075829,Waveshare_Sense_HAT_B/IMU,-0.7718549407410161,-0.6356905524475475,0.011363185870954922,0.0028896348344280742,-1.0,-1.0,-1.0,-1.0,-1.0,-1.0,-1.0,-1.0,-1.0,-0.022104237047657675,0.0021305288720633903,-0.01757686319452297,0.0,0.0,0.0,0.0,0.0,0.0,0.0,0.0,0.0,-0.209564208984375,-0.316142578125,10.007589111328125,0.0,0.0,0.0,0.0,0.0,0.0,0.0,0.0,0.0
1664959678.8414812,2727,1664959678,829183989,Waveshare_Sense_HAT_B/IMU,-0.7718025603073274,-0.6357545026474276,0.011360389572134108,0.002821668893691122,-1.0,-1.0,-1.0,-1.0,-1.0,-1.0,-1.0,-1.0,-1.0,-0.0167779148674992,-0.011984224905356571,-0.017310547085515045,0.0,0.0,0.0,0.0,0.0,0.0,0.0,0.0,0.0,-0.204774169921875,-0.317340087890625,10.005194091796875,0.0,0.0,0.0,0.0,0.0,0.0,0.0,0.0,0.0
1664959678.8535914,2728,1664959678,841323556,Waveshare_Sense_HAT_B/IMU,-0.7717328437951372,-0.6358390040060928,0.011384967402750025,0.002749783563956749,-1.0,-1.0,-1.0,-1.0,-1.0,-1.0,-1.0,-1.0,-1.0,-0.014913702104443732,-0.016511598758491276,-0.021571604829641825,0.0,0.0,0.0,0.0,0.0,0.0,0.0,0.0,0.0,-0.19040405273437502,-0.324525146484375,9.986033935546876,0.0,0.0,0.0,0.0,0.0,0.0,0.0,0.0,0.0
1664959678.8657432,2729,1664959678,853434846,Waveshare_Sense_HAT_B/IMU,-0.7716564493310767,-0.6359311725471789,0.011429173859770742,0.002691091490248153,-1.0,-1.0,-1.0,-1.0,-1.0,-1.0,-1.0,-1.0,-1.0,-0.012250541014364494,-0.01757686319452297,-0.022903185374681445,0.0,0.0,0.0,0.0,0.0,0.0,0.0,0.0,0.0,-0.18082397460937502,-0.348475341796875,9.995614013671876,0.0,0.0,0.0,0.0,0.0,0.0,0.0,0.0,0.0
1664959678.877808,2730,1664959678,865564598,Waveshare_Sense_HAT_B/IMU,-0.771572466192434,-0.6360318288992195,0.01151138667306567,0.0026324926785087684,-1.0,-1.0,-1.0,-1.0,-1.0,-1.0,-1.0,-1.0,-1.0,-0.007989483270237713,-0.02370213370170522,-0.025033714246744835,0.0,0.0,0.0,0.0,0.0,0.0,0.0,0.0,0.0,-0.16525634765625,-0.335302734375,9.990823974609375,0.0,0.0,0.0,0.0,0.0,0.0,0.0,0.0,0.0
1664959678.889913,2731,1664959678,877663296,Waveshare_Sense_HAT_B/IMU,-0.7714796811292677,-0.636142509958538,0.011624696665707427,0.0025836129286619827,-1.0,-1.0,-1.0,-1.0,-1.0,-1.0,-1.0,-1.0,-1.0,-0.0029294771990871615,-0.027164243118808225,-0.027164243118808225,0.0,0.0,0.0,0.0,0.0,0.0,0.0,0.0,0.0,-0.15328125,-0.3209326171875,10.001601562500001,0.0,0.0,0.0,0.0,0.0,0.0,0.0,0.0,0.0
1664959678.9020014,2732,1664959678,889762400,Waveshare_Sense_HAT_B/IMU,-0.7714165467880244,-0.6362181052466512,0.011680270017751054,0.0025700564805571985,-1.0,-1.0,-1.0,-1.0,-1.0,-1.0,-1.0,-1.0,-1.0,-0.0034621094171030094,-0.017843179303530892,-0.02024002428460221,0.0,0.0,0.0,0.0,0.0,0.0,0.0,0.0,0.0,-0.137713623046875,-0.296982421875,9.995614013671876,0.0,0.0,0.0,0.0,0.0,0.0,0.0,0.0,0.0
1664959678.9141977,2733,1664959678,901859209,Waveshare_Sense_HAT_B/IMU,-0.77132479707524,-0.6363286213628381,0.011729204336816582,0.002523651508248616,-1.0,-1.0,-1.0,-1.0,-1.0,-1.0,-1.0,-1.0,-1.0,-0.006125270507182247,-0.020772656502618055,-0.027430559227816148,0.0,0.0,0.0,0.0,0.0,0.0,0.0,0.0,0.0,-0.13172607421875002,-0.25147705078125,9.987231445312501,0.0,0.0,0.0,0.0,0.0,0.0,0.0,0.0,0.0
1664959678.926302,2734,1664959678,913992165,Waveshare_Sense_HAT_B/IMU,-0.7712715852348156,-0.6363927458057879,0.011752855645533373,0.002507045934869011,-1.0,-1.0,-1.0,-1.0,-1.0,-1.0,-1.0,-1.0,-1.0,-0.0055926382891664,-0.015180018213451656,-0.01757686319452297,0.0,0.0,0.0,0.0,0.0,0.0,0.0,0.0,0.0,-0.11017089843750001,-0.2682421875,9.994416503906251,0.0,0.0,0.0,0.0,0.0,0.0,0.0,0.0,0.0
1664959678.9383948,2735,1664959678,926130269,Waveshare_Sense_HAT_B/IMU,-0.7712306470859804,-0.6364430916668447,0.01171470551112458,0.0024991477898715824,-1.0,-1.0,-1.0,-1.0,-1.0,-1.0,-1.0,-1.0,-1.0,-0.0111852765783328,-0.0066579027251980945,-0.014647385995435807,0.0,0.0,0.0,0.0,0.0,0.0,0.0,0.0,0.0,-0.11017089843750001,-0.276624755859375,9.990823974609375,0.0,0.0,0.0,0.0,0.0,0.0,0.0,0.0,0.0
1664959678.9505222,2736,1664959678,938251133,Waveshare_Sense_HAT_B/IMU,-0.7711767287191499,-0.6365089837767411,0.011683111574534128,0.0025043077822102166,-1.0,-1.0,-1.0,-1.0,-1.0,-1.0,-1.0,-1.0,-1.0,-0.008788431597261484,-0.006125270507182247,-0.017843179303530892,0.0,0.0,0.0,0.0,0.0,0.0,0.0,0.0,0.0,-0.10538085937500001,-0.27422973632812503,9.98244140625,0.0,0.0,0.0,0.0,0.0,0.0,0.0,0.0,0.0
1664959678.9626718,2737,1664959678,950360867,Waveshare_Sense_HAT_B/IMU,-0.7711686586465689,-0.6365198396016214,0.011622564864987047,0.0025119117694006547,-1.0,-1.0,-1.0,-1.0,-1.0,-1.0,-1.0,-1.0,-1.0,-0.012250541014364494,-0.0015978966540475428,-0.006125270507182247,0.0,0.0,0.0,0.0,0.0,0.0,0.0,0.0,0.0,-0.10777587890625001,-0.295784912109375,9.966873779296876,0.0,0.0,0.0,0.0,0.0,0.0,0.0,0.0,0.0
1664959678.974792,2738,1664959678,962488490,Waveshare_Sense_HAT_B/IMU,-0.7711948133183554,-0.6364882477650753,0.011615850885760988,0.0025184074354640744,-1.0,-1.0,-1.0,-1.0,-1.0,-1.0,-1.0,-1.0,-1.0,-0.007190534943213942,-0.007456851052221866,0.0029294771990871615,0.0,0.0,0.0,0.0,0.0,0.0,0.0,0.0,0.0,-0.113763427734375,-0.3065625,9.97525634765625,0.0,0.0,0.0,0.0,0.0,0.0,0.0,0.0,0.0
1664959678.9868999,2739,1664959678,974637890,Waveshare_Sense_HAT_B/IMU,-0.7712247835468786,-0.6364536884548812,0.011527040235719098,0.0024825468075017794,-1.0,-1.0,-1.0,-1.0,-1.0,-1.0,-1.0,-1.0,-1.0,-0.021305288720633902,-0.002396844981071314,0.0034621094171030094,0.0,0.0,0.0,0.0,0.0,0.0,0.0,0.0,0.0,-0.108973388671875,-0.31374755859375003,9.964478759765626,0.0,0.0,0.0,0.0,0.0,0.0,0.0,0.0,0.0
1664959678.9989953,2740,1664959678,986746643,Waveshare_Sense_HAT_B/IMU,-0.7712620216797217,-0.6364091628840881,0.011508120791579502,0.0024154642470505714,-1.0,-1.0,-1.0,-1.0,-1.0,-1.0,-1.0,-1.0,-1.0,-0.018375811521546742,-0.01411475377741996,0.0055926382891664,0.0,0.0,0.0,0.0,0.0,0.0,0.0,0.0,0.0,-0.106578369140625,-0.3209326171875,9.972861328125001,0.0,0.0,0.0,0.0,0.0,0.0,0.0,0.0,0.0
1664959679.0110936,2741,1664959678,998853155,Waveshare_Sense_HAT_B/IMU,-0.7713286438589255,-0.6363284781673084,0.01151607482731625,0.0023603085814439006,-1.0,-1.0,-1.0,-1.0,-1.0,-1.0,-1.0,-1.0,-1.0,-0.0167779148674992,-0.015978966540475426,0.012783173232380343,0.0,0.0,0.0,0.0,0.0,0.0,0.0,0.0,0.0,-0.12334350585937501,-0.37362304687500003,9.97525634765625,0.0,0.0,0.0,0.0,0.0,0.0,0.0,0.0,0.0
1664959679.0232103,2742,1664959679,10955574,Waveshare_Sense_HAT_B/IMU,-0.7714099843681561,-0.6362299025982437,0.01152761126327473,0.0022937383271517463,-1.0,-1.0,-1.0,-1.0,-1.0,-1.0,-1.0,-1.0,-1.0,-0.017310547085515045,-0.01757686319452297,0.016511598758491276,0.0,0.0,0.0,0.0,0.0,0.0,0.0,0.0,0.0,-0.12334350585937501,-0.36164794921875004,9.956096191406251,0.0,0.0,0.0,0.0,0.0,0.0,0.0,0.0,0.0
1664959679.035351,2743,1664959679,23067420,Waveshare_Sense_HAT_B/IMU,-0.7714760823970057,-0.6361507604264545,0.011487730858510634,0.0022127670311859796,-1.0,-1.0,-1.0,-1.0,-1.0,-1.0,-1.0,-1.0,-1.0,-0.02476739813773691,-0.012250541014364494,0.012516857123372417,0.0,0.0,0.0,0.0,0.0,0.0,0.0,0.0,0.0,-0.135318603515625,-0.3688330078125,9.952503662109375,0.0,0.0,0.0,0.0,0.0,0.0,0.0,0.0,0.0
1664959679.0474918,2744,1664959679,35183524,Waveshare_Sense_HAT_B/IMU,-0.7715721568845411,-0.6360346966774171,0.011485093817357789,0.0020890100548389694,-1.0,-1.0,-1.0,-1.0,-1.0,-1.0,-1.0,-1.0,-1.0,-0.027696875336824075,-0.020506340393610132,0.02024002428460221,0.0,0.0,0.0,0.0,0.0,0.0,0.0,0.0,0.0,-0.149688720703125,-0.39996826171875,9.971663818359376,0.0,0.0,0.0,0.0,0.0,0.0,0.0,0.0,0.0
1664959679.059615,2745,1664959679,47324721,Waveshare_Sense_HAT_B/IMU,-0.7716401795372424,-0.6359522138062444,0.011508583614694413,0.0019410259794586594,-1.0,-1.0,-1.0,-1.0,-1.0,-1.0,-1.0,-1.0,-1.0,-0.0268979270098003,-0.025033714246744835,0.013582121559404112,0.0,0.0,0.0,0.0,0.0,0.0,0.0,0.0,0.0,-0.16525634765625,-0.377215576171875,9.987231445312501,0.0,0.0,0.0,0.0,0.0,0.0,0.0,0.0,0.0
1664959679.0716944,2746,1664959679,59441733,Waveshare_Sense_HAT_B/IMU,-0.7716818499311838,-0.6359022912355148,0.011489748342630016,0.0018396117068181486,-1.0,-1.0,-1.0,-1.0,-1.0,-1.0,-1.0,-1.0,-1.0,-0.02450108202872899,-0.015180018213451656,0.006391586616190171,0.0,0.0,0.0,0.0,0.0,0.0,0.0,0.0,0.0,-0.18202148437500001,-0.348475341796875,9.98483642578125,0.0,0.0,0.0,0.0,0.0,0.0,0.0,0.0,0.0
1664959679.0838604,2747,1664959679,71547208,Waveshare_Sense_HAT_B/IMU,-0.7717369433518984,-0.6358350508513803,0.011522320337884294,0.001764797076884887,-1.0,-1.0,-1.0,-1.0,-1.0,-1.0,-1.0,-1.0,-1.0,-0.015180018213451656,-0.018642127630554665,0.010120012142301104,0.0,0.0,0.0,0.0,0.0,0.0,0.0,0.0,0.0,-0.17483642578125,-0.33410522460937503,10.000404052734375,0.0,0.0,0.0,0.0,0.0,0.0,0.0,0.0,0.0
1664959679.0960033,2748,1664959679,83675071,Waveshare_Sense_HAT_B/IMU,-0.7717495383208187,-0.6358192718256458,0.011561239170119607,0.0016856528587175022,-1.0,-1.0,-1.0,-1.0,-1.0,-1.0,-1.0,-1.0,-1.0,-0.016245282649483352,-0.019174759848570512,-0.0002663161090079238,0.0,0.0,0.0,0.0,0.0,0.0,0.0,0.0,0.0,-0.183218994140625,-0.360450439453125,9.9968115234375,0.0,0.0,0.0,0.0,0.0,0.0,0.0,0.0,0.0
1664959679.1080756,2749,1664959679,95843656,Waveshare_Sense_HAT_B/IMU,-0.7717702320174691,-0.6357937469326429,0.011588433141195545,0.001651832432249314,-1.0,-1.0,-1.0,-1.0,-1.0,-1.0,-1.0,-1.0,-1.0,-0.00985369603329318,-0.013315805450396189,0.0015978966540475428,0.0,0.0,0.0,0.0,0.0,0.0,0.0,0.0,0.0,-0.183218994140625,-0.316142578125,9.9968115234375,0.0,0.0,0.0,0.0,0.0,0.0,0.0,0.0,0.0
1664959679.1201823,2750,1664959679,107944132,Waveshare_Sense_HAT_B/IMU,-0.7717507435792319,-0.6358166394822572,0.011634459492309249,0.0016217566753080458,-1.0,-1.0,-1.0,-1.0,-1.0,-1.0,-1.0,-1.0,-1.0,-0.007456851052221866,-0.014647385995435807,-0.008522115488253561,0.0,0.0,0.0,0.0,0.0,0.0,0.0,0.0,0.0,-0.199984130859375,-0.31374755859375003,10.001601562500001,0.0,0.0,0.0,0.0,0.0,0.0,0.0,0.0,0.0
1664959679.1322985,2751,1664959679,120042829,Waveshare_Sense_HAT_B/IMU,-0.7717529089685556,-0.6358122186463587,0.011733400720626395,0.0016116532183097158,-1.0,-1.0,-1.0,-1.0,-1.0,-1.0,-1.0,-1.0,-1.0,0.0007989483270237714,-0.01970739206658636,-0.0029294771990871615,0.0,0.0,0.0,0.0,0.0,0.0,0.0,0.0,0.0,-0.188009033203125,-0.3065625,10.005194091796875,0.0,0.0,0.0,0.0,0.0,0.0,0.0,0.0,0.0
1664959679.1444106,2752,1664959679,132150989,Waveshare_Sense_HAT_B/IMU,-0.7717355895271282,-0.6358327061608939,0.011761120679010067,0.0016203930708977097,-1.0,-1.0,-1.0,-1.0,-1.0,-1.0,-1.0,-1.0,-1.0,-0.0042610577441267805,-0.009587379924285256,-0.007989483270237713,0.0,0.0,0.0,0.0,0.0,0.0,0.0,0.0,0.0,-0.17483642578125,-0.310155029296875,9.998009033203125,0.0,0.0,0.0,0.0,0.0,0.0,0.0,0.0,0.0
1664959679.1565502,2753,1664959679,144253909,Waveshare_Sense_HAT_B/IMU,-0.771709609955553,-0.6358632646214535,0.011813705689434104,0.0016195570626449545,-1.0,-1.0,-1.0,-1.0,-1.0,-1.0,-1.0,-1.0,-1.0,-0.0034621094171030094,-0.014381069886427884,-0.010386328251309028,0.0,0.0,0.0,0.0,0.0,0.0,0.0,0.0,0.0,-0.17244140625,-0.31853759765625,10.007589111328125,0.0,0.0,0.0,0.0,0.0,0.0,0.0,0.0,0.0
1664959679.1686702,2754,1664959679,156371513,Waveshare_Sense_HAT_B/IMU,-0.7717179868315444,-0.6358526187575914,0.011846493123579875,0.0015673609840667938,-1.0,-1.0,-1.0,-1.0,-1.0,-1.0,-1.0,-1.0,-1.0,-0.012783173232380343,-0.017044230976507122,-0.0015978966540475428,0.0,0.0,0.0,0.0,0.0,0.0,0.0,0.0,0.0,-0.168848876953125,-0.34248779296875004,9.998009033203125,0.0,0.0,0.0,0.0,0.0,0.0,0.0,0.0,0.0
1664959679.180792,2755,1664959679,168511969,Waveshare_Sense_HAT_B/IMU,-0.7716922260975998,-0.6358833789995355,0.01188962607184568,0.0014398904596106094,-1.0,-1.0,-1.0,-1.0,-1.0,-1.0,-1.0,-1.0,-1.0,-0.02024002428460221,-0.02609897868277653,-0.010386328251309028,0.0,0.0,0.0,0.0,0.0,0.0,0.0,0.0,0.0,-0.18202148437500001,-0.31853759765625,9.978848876953126,0.0,0.0,0.0,0.0,0.0,0.0,0.0,0.0,0.0
1664959679.1928747,2756,1664959679,180622370,Waveshare_Sense_HAT_B/IMU,-0.7716975713907506,-0.6358764143698384,0.01192933095334155,0.0013172018754676318,-1.0,-1.0,-1.0,-1.0,-1.0,-1.0,-1.0,-1.0,-1.0,-0.01970739206658636,-0.0268979270098003,-0.0031957933080950856,0.0,0.0,0.0,0.0,0.0,0.0,0.0,0.0,0.0,-0.17244140625,-0.30416748046875003,9.993218994140625,0.0,0.0,0.0,0.0,0.0,0.0,0.0,0.0,0.0
1664959679.2049606,2757,1664959679,192728752,Waveshare_Sense_HAT_B/IMU,-0.7716651801322261,-0.6359152501809863,0.011972954656781191,0.0011369764902209273,-1.0,-1.0,-1.0,-1.0,-1.0,-1.0,-1.0,-1.0,-1.0,-0.027164243118808225,-0.0335558297349984,-0.012516857123372417,0.0,0.0,0.0,0.0,0.0,0.0,0.0,0.0,0.0,-0.162861328125,-0.31853759765625,9.988428955078126,0.0,0.0,0.0,0.0,0.0,0.0,0.0,0.0,0.0
1664959679.217121,2758,1664959679,204826783,Waveshare_Sense_HAT_B/IMU,-0.7716730907178464,-0.6359052214939538,0.012011352340919252,0.0009579945898796894,-1.0,-1.0,-1.0,-1.0,-1.0,-1.0,-1.0,-1.0,-1.0,-0.027164243118808225,-0.03275688140797463,-0.002396844981071314,0.0,0.0,0.0,0.0,0.0,0.0,0.0,0.0,0.0,-0.1676513671875,-0.30895751953125,9.9776513671875,0.0,0.0,0.0,0.0,0.0,0.0,0.0,0.0,0.0
1664959679.2292414,2759,1664959679,216966628,Waveshare_Sense_HAT_B/IMU,-0.7716666751975368,-0.635913086889115,0.01201950446109828,0.000787289810597542,-1.0,-1.0,-1.0,-1.0,-1.0,-1.0,-1.0,-1.0,-1.0,-0.028762139772855768,-0.02822950755483992,-0.006125270507182247,0.0,0.0,0.0,0.0,0.0,0.0,0.0,0.0,0.0,-0.17124389648437502,-0.295784912109375,9.981243896484376,0.0,0.0,0.0,0.0,0.0,0.0,0.0,0.0,0.0
1664959679.2413383,2760,1664959679,229086751,Waveshare_Sense_HAT_B/IMU,-0.771646029005154,-0.6359373412393752,0.01207309169178394,0.0005868517473115583,-1.0,-1.0,-1.0,-1.0,-1.0,-1.0,-1.0,-1.0,-1.0,-0.02583266257376861,-0.03595267471606971,-0.009321063815277333,0.0,0.0,0.0,0.0,0.0,0.0,0.0,0.0,0.0,-0.183218994140625,-0.25387207031250003,9.993218994140625,0.0,0.0,0.0,0.0,0.0,0.0,0.0,0.0,0.0
1664959679.253457,2761,1664959679,241194355,Waveshare_Sense_HAT_B/IMU,-0.7716385005106804,-0.6359458599728552,0.012112937543046834,0.0004055330962988151,-1.0,-1.0,-1.0,-1.0,-1.0,-1.0,-1.0,-1.0,-1.0,-0.025033714246744835,-0.0335558297349984,-0.006125270507182247,0.0,0.0,0.0,0.0,0.0,0.0,0.0,0.0,0.0,-0.162861328125,-0.25387207031250003,9.971663818359376,0.0,0.0,0.0,0.0,0.0,0.0,0.0,0.0,0.0
1664959679.2655883,2762,1664959679,253300442,Waveshare_Sense_HAT_B/IMU,-0.7715992634966047,-0.6359919887614207,0.012194396579020793,0.00025198187181499587,-1.0,-1.0,-1.0,-1.0,-1.0,-1.0,-1.0,-1.0,-1.0,-0.017044230976507122,-0.03621899082507764,-0.01411475377741996,0.0,0.0,0.0,0.0,0.0,0.0,0.0,0.0,0.0,-0.16166381835937502,-0.243094482421875,9.990823974609375,0.0,0.0,0.0,0.0,0.0,0.0,0.0,0.0,0.0
1664959679.2777429,2763,1664959679,265412676,Waveshare_Sense_HAT_B/IMU,-0.7715820837179502,-0.6360118735265139,0.012245066354945239,0.00020777084150579996,-1.0,-1.0,-1.0,-1.0,-1.0,-1.0,-1.0,-1.0,-1.0,-0.008255799379245638,-0.02103897261162598,-0.008788431597261484,0.0,0.0,0.0,0.0,0.0,0.0,0.0,0.0,0.0,-0.1676513671875,-0.277822265625,10.000404052734375,0.0,0.0,0.0,0.0,0.0,0.0,0.0,0.0,0.0
1664959679.2898724,2764,1664959679,277549650,Waveshare_Sense_HAT_B/IMU,-0.7715884651715951,-0.6360039531294412,0.012254691325688983,0.00018589883731887742,-1.0,-1.0,-1.0,-1.0,-1.0,-1.0,-1.0,-1.0,-1.0,-0.010652644360316951,-0.013315805450396189,-0.0026631610900792377,0.0,0.0,0.0,0.0,0.0,0.0,0.0,0.0,0.0,-0.16166381835937502,-0.30416748046875003,9.993218994140625,0.0,0.0,0.0,0.0,0.0,0.0,0.0,0.0,0.0
1664959679.3019762,2765,1664959679,289684440,Waveshare_Sense_HAT_B/IMU,-0.771645264536196,-0.6359352685310087,0.01224246754409479,0.00020480646880726217,-1.0,-1.0,-1.0,-1.0,-1.0,-1.0,-1.0,-1.0,-1.0,-0.007456851052221866,-0.006125270507182247,0.010120012142301104,0.0,0.0,0.0,0.0,0.0,0.0,0.0,0.0,0.0,-0.162861328125,-0.30177246093750004,10.03752685546875,0.0,0.0,0.0,0.0,0.0,0.0,0.0,0.0,0.0
1664959679.3141105,2766,1664959679,301813544,Waveshare_Sense_HAT_B/IMU,-0.77164920430932,-0.6359309393726369,0.012218616220124727,0.00022639587907263424,-1.0,-1.0,-1.0,-1.0,-1.0,-1.0,-1.0,-1.0,-1.0,-0.008788431597261484,-0.0042610577441267805,-0.0031957933080950856,0.0,0.0,0.0,0.0,0.0,0.0,0.0,0.0,0.0,-0.16525634765625,-0.310155029296875,10.036329345703125,0.0,0.0,0.0,0.0,0.0,0.0,0.0,0.0,0.0
1664959679.326198,2767,1664959679,313945000,Waveshare_Sense_HAT_B/IMU,-0.7716506628184423,-0.6359284459084277,0.012255783091840859,0.0002490725927100967,-1.0,-1.0,-1.0,-1.0,-1.0,-1.0,-1.0,-1.0,-1.0,-0.004793689962142628,-0.011451592687340723,-0.003994741635118856,0.0,0.0,0.0,0.0,0.0,0.0,0.0,0.0,0.0,-0.183218994140625,-0.35685791015625,10.039921875000001,0.0,0.0,0.0,0.0,0.0,0.0,0.0,0.0,0.0
1664959679.338399,2768,1664959679,326073197,Waveshare_Sense_HAT_B/IMU,-0.7716739722495836,-0.6358997548325764,0.012275148903636653,0.00032105421924823196,-1.0,-1.0,-1.0,-1.0,-1.0,-1.0,-1.0,-1.0,-1.0,-0.0002663161090079238,-0.004793689962142628,0.0010652644360316951,0.0,0.0,0.0,0.0,0.0,0.0,0.0,0.0,0.0,-0.18082397460937502,-0.3496728515625,10.04231689453125,0.0,0.0,0.0,0.0,0.0,0.0,0.0,0.0,0.0
1664959679.3505723,2769,1664959679,338266522,Waveshare_Sense_HAT_B/IMU,-0.7717244229957674,-0.6358379928508089,0.012301232127450589,0.00037614817724409226,-1.0,-1.0,-1.0,-1.0,-1.0,-1.0,-1.0,-1.0,-1.0,-0.0015978966540475428,-0.007456851052221866,0.008255799379245638,0.0,0.0,0.0,0.0,0.0,0.0,0.0,0.0,0.0,-0.16645385742187502,-0.355660400390625,10.07105712890625,0.0,0.0,0.0,0.0,0.0,0.0,0.0,0.0,0.0
1664959679.3627052,2770,1664959679,350409126,Waveshare_Sense_HAT_B/IMU,-0.7718029150723938,-0.6357425328870255,0.01230725668620637,0.0004728604491174852,-1.0,-1.0,-1.0,-1.0,-1.0,-1.0,-1.0,-1.0,-1.0,0.0010652644360316951,-0.0005326322180158476,0.014913702104443732,0.0,0.0,0.0,0.0,0.0,0.0,0.0,0.0,0.0,-0.18082397460937502,-0.36284545898437504,10.043514404296875,0.0,0.0,0.0,0.0,0.0,0.0,0.0,0.0,0.0
1664959679.3747723,2771,1664959679,362538638,Waveshare_Sense_HAT_B/IMU,-0.7719055884892666,-0.6356179263370949,0.012300455764842145,0.0005594335953006654,-1.0,-1.0,-1.0,-1.0,-1.0,-1.0,-1.0,-1.0,-1.0,-0.0013315805450396189,0.0002663161090079238,0.021305288720633902,0.0,0.0,0.0,0.0,0.0,0.0,0.0,0.0,0.0,-0.17244140625,-0.365240478515625,10.021959228515625,0.0,0.0,0.0,0.0,0.0,0.0,0.0,0.0,0.0
1664959679.3870134,2772,1664959679,374639113,Waveshare_Sense_HAT_B/IMU,-0.7719771214939944,-0.6355315991611272,0.01226700524719522,0.0006564600612460772,-1.0,-1.0,-1.0,-1.0,-1.0,-1.0,-1.0,-1.0,-1.0,-0.0010652644360316951,0.005060006071150552,0.013315805450396189,0.0,0.0,0.0,0.0,0.0,0.0,0.0,0.0,0.0,-0.18561401367187502,-0.326920166015625,10.005194091796875,0.0,0.0,0.0,0.0,0.0,0.0,0.0,0.0,0.0
1664959679.399088,2773,1664959679,386770143,Waveshare_Sense_HAT_B/IMU,-0.772035111045438,-0.6354624634181705,0.012194461881040081,0.0007348462428309381,-1.0,-1.0,-1.0,-1.0,-1.0,-1.0,-1.0,-1.0,-1.0,-0.008522115488253561,0.008255799379245638,0.009587379924285256,0.0,0.0,0.0,0.0,0.0,0.0,0.0,0.0,0.0,-0.19639160156250002,-0.348475341796875,9.974058837890626,0.0,0.0,0.0,0.0,0.0,0.0,0.0,0.0,0.0
1664959679.411272,2774,1664959679,398908062,Waveshare_Sense_HAT_B/IMU,-0.7721219035969088,-0.6353592149198432,0.012072792846099679,0.0008256362523955484,-1.0,-1.0,-1.0,-1.0,-1.0,-1.0,-1.0,-1.0,-1.0,-0.012516857123372417,0.015978966540475426,0.0167779148674992,0.0,0.0,0.0,0.0,0.0,0.0,0.0,0.0,0.0,-0.197589111328125,-0.36284545898437504,9.98483642578125,0.0,0.0,0.0,0.0,0.0,0.0,0.0,0.0,0.0
1664959679.4233642,2775,1664959679,411070703,Waveshare_Sense_HAT_B/IMU,-0.772199101788687,-0.6352687631678507,0.011891132049618053,0.000864128759333771,-1.0,-1.0,-1.0,-1.0,-1.0,-1.0,-1.0,-1.0,-1.0,-0.025300030355752758,0.017310547085515045,0.014381069886427884,0.0,0.0,0.0,0.0,0.0,0.0,0.0,0.0,0.0,-0.178428955078125,-0.36643798828125,9.966873779296876,0.0,0.0,0.0,0.0,0.0,0.0,0.0,0.0,0.0
1664959679.435477,2776,1664959679,423225011,Waveshare_Sense_HAT_B/IMU,-0.77228192216635,-0.6351711561745855,0.011728272516430003,0.0008262461306922913,-1.0,-1.0,-1.0,-1.0,-1.0,-1.0,-1.0,-1.0,-1.0,-0.03169161697194293,0.007456851052221866,0.016245282649483352,0.0,0.0,0.0,0.0,0.0,0.0,0.0,0.0,0.0,-0.17124389648437502,-0.34368530273437503,9.964478759765626,0.0,0.0,0.0,0.0,0.0,0.0,0.0,0.0,0.0
1664959679.4475799,2777,1664959679,435334523,Waveshare_Sense_HAT_B/IMU,-0.7723367675299023,-0.6351079126449486,0.011539728276724599,0.0008315578977140177,-1.0,-1.0,-1.0,-1.0,-1.0,-1.0,-1.0,-1.0,-1.0,-0.030093720317895388,0.015446334322459579,0.008522115488253561,0.0,0.0,0.0,0.0,0.0,0.0,0.0,0.0,0.0,-0.199984130859375,-0.355660400390625,9.934541015625001,0.0,0.0,0.0,0.0,0.0,0.0,0.0,0.0,0.0
1664959679.4598455,2778,1664959679,447440813,Waveshare_Sense_HAT_B/IMU,-0.772380759396793,-0.635057625153803,0.011360960751705045,0.0008389388794991841,-1.0,-1.0,-1.0,-1.0,-1.0,-1.0,-1.0,-1.0,-1.0,-0.02902845588186369,0.015180018213451656,0.006125270507182247,0.0,0.0,0.0,0.0,0.0,0.0,0.0,0.0,0.0,-0.199984130859375,-0.36164794921875004,9.94412109375,0.0,0.0,0.0,0.0,0.0,0.0,0.0,0.0,0.0
1664959679.472031,2779,1664959679,459621490,Waveshare_Sense_HAT_B/IMU,-0.7724182896010169,-0.6350138033281898,0.01126143510009876,0.0007972151482958268,-1.0,-1.0,-1.0,-1.0,-1.0,-1.0,-1.0,-1.0,-1.0,-0.026631610900792378,0.0,0.004527373853134705,0.0,0.0,0.0,0.0,0.0,0.0,0.0,0.0,0.0,-0.199984130859375,-0.34727783203125,9.95130615234375,0.0,0.0,0.0,0.0,0.0,0.0,0.0,0.0,0.0
1664959679.4842763,2780,1664959679,471877759,Waveshare_Sense_HAT_B/IMU,-0.7724964705862025,-0.6349202061639478,0.011179841617244241,0.0007388355729204121,-1.0,-1.0,-1.0,-1.0,-1.0,-1.0,-1.0,-1.0,-1.0,-0.026631610900792378,-0.0031957933080950856,0.015180018213451656,0.0,0.0,0.0,0.0,0.0,0.0,0.0,0.0,0.0,-0.197589111328125,-0.34727783203125,9.962083740234375,0.0,0.0,0.0,0.0,0.0,0.0,0.0,0.0,0.0
1664959679.4964411,2781,1664959679,484130787,Waveshare_Sense_HAT_B/IMU,-0.7725611116135136,-0.6348417278429431,0.011173212439412121,0.0006846427264252245,-1.0,-1.0,-1.0,-1.0,-1.0,-1.0,-1.0,-1.0,-1.0,-0.018642127630554665,-0.012783173232380343,0.011984224905356571,0.0,0.0,0.0,0.0,0.0,0.0,0.0,0.0,0.0,-0.18082397460937502,-0.348475341796875,9.96088623046875,0.0,0.0,0.0,0.0,0.0,0.0,0.0,0.0,0.0
1664959679.5085242,2782,1664959679,496266354,Waveshare_Sense_HAT_B/IMU,-0.7725995732458735,-0.6347948221834103,0.011181044532063065,0.0006460592841770257,-1.0,-1.0,-1.0,-1.0,-1.0,-1.0,-1.0,-1.0,-1.0,-0.015180018213451656,-0.013582121559404112,0.0053263221801584755,0.0,0.0,0.0,0.0,0.0,0.0,0.0,0.0,0.0,-0.17483642578125,-0.34368530273437503,9.957293701171876,0.0,0.0,0.0,0.0,0.0,0.0,0.0,0.0,0.0
1664959679.5206454,2783,1664959679,508384422,Waveshare_Sense_HAT_B/IMU,-0.7726658984943504,-0.6347135311526693,0.011212394973971578,0.0006518240372206928,-1.0,-1.0,-1.0,-1.0,-1.0,-1.0,-1.0,-1.0,-1.0,-0.0055926382891664,-0.012250541014364494,0.011984224905356571,0.0,0.0,0.0,0.0,0.0,0.0,0.0,0.0,0.0,-0.17962646484375,-0.30416748046875003,9.9776513671875,0.0,0.0,0.0,0.0,0.0,0.0,0.0,0.0,0.0
1664959679.5327482,2784,1664959679,520502897,Waveshare_Sense_HAT_B/IMU,-0.7727208373525801,-0.6346462409813374,0.011231298633611508,0.0007171195077433473,-1.0,-1.0,-1.0,-1.0,-1.0,-1.0,-1.0,-1.0,-1.0,-0.0015978966540475428,-0.0042610577441267805,0.008788431597261484,0.0,0.0,0.0,0.0,0.0,0.0,0.0,0.0,0.0,-0.197589111328125,-0.346080322265625,9.9680712890625,0.0,0.0,0.0,0.0,0.0,0.0,0.0,0.0,0.0
1664959679.5449064,2785,1664959679,532610001,Waveshare_Sense_HAT_B/IMU,-0.7728054439661514,-0.6345432624187424,0.011224833980478572,0.0007726560484896988,-1.0,-1.0,-1.0,-1.0,-1.0,-1.0,-1.0,-1.0,-1.0,-0.0029294771990871615,-0.002396844981071314,0.016511598758491276,0.0,0.0,0.0,0.0,0.0,0.0,0.0,0.0,0.0,-0.1772314453125,-0.300574951171875,9.98483642578125,0.0,0.0,0.0,0.0,0.0,0.0,0.0,0.0,0.0
1664959679.5570323,2786,1664959679,544765253,Waveshare_Sense_HAT_B/IMU,-0.7728541304634869,-0.634483217314937,0.011267636451926565,0.000761800499628692,-1.0,-1.0,-1.0,-1.0,-1.0,-1.0,-1.0,-1.0,-1.0,-0.005060006071150552,-0.014381069886427884,0.007989483270237713,0.0,0.0,0.0,0.0,0.0,0.0,0.0,0.0,0.0,-0.18082397460937502,-0.281414794921875,9.987231445312501,0.0,0.0,0.0,0.0,0.0,0.0,0.0,0.0,0.0
1664959679.5691223,2787,1664959679,556881932,Waveshare_Sense_HAT_B/IMU,-0.7729032187730778,-0.6344230573100417,0.011288682650908283,0.000751270658477852,-1.0,-1.0,-1.0,-1.0,-1.0,-1.0,-1.0,-1.0,-1.0,-0.0077231671612297895,-0.0111852765783328,0.008255799379245638,0.0,0.0,0.0,0.0,0.0,0.0,0.0,0.0,0.0,-0.183218994140625,-0.295784912109375,10.008786621093751,0.0,0.0,0.0,0.0,0.0,0.0,0.0,0.0,0.0
1664959679.5812252,2788,1664959679,568997759,Waveshare_Sense_HAT_B/IMU,-0.7729277731607169,-0.6343922196074422,0.011340865864561863,0.000744271321648419,-1.0,-1.0,-1.0,-1.0,-1.0,-1.0,-1.0,-1.0,-1.0,-0.004793689962142628,-0.015978966540475426,0.0018642127630554665,0.0,0.0,0.0,0.0,0.0,0.0,0.0,0.0,0.0,-0.168848876953125,-0.305364990234375,10.0063916015625,0.0,0.0,0.0,0.0,0.0,0.0,0.0,0.0,0.0
1664959679.593376,2789,1664959679,581098104,Waveshare_Sense_HAT_B/IMU,-0.7729769324457171,-0.6343316702523435,0.011377880533569815,0.0007333868320258843,-1.0,-1.0,-1.0,-1.0,-1.0,-1.0,-1.0,-1.0,-1.0,-0.006391586616190171,-0.014913702104443732,0.0077231671612297895,0.0,0.0,0.0,0.0,0.0,0.0,0.0,0.0,0.0,-0.17244140625,-0.29338989257812503,10.000404052734375,0.0,0.0,0.0,0.0,0.0,0.0,0.0,0.0,0.0
1664959679.6054616,2790,1664959679,593233116,Waveshare_Sense_HAT_B/IMU,-0.7730322580894705,-0.6342635435430365,0.011417662957893216,0.000722674134686756,-1.0,-1.0,-1.0,-1.0,-1.0,-1.0,-1.0,-1.0,-1.0,-0.0055926382891664,-0.01411475377741996,0.009587379924285256,0.0,0.0,0.0,0.0,0.0,0.0,0.0,0.0,0.0,-0.18441650390625,-0.28740234375,10.000404052734375,0.0,0.0,0.0,0.0,0.0,0.0,0.0,0.0,0.0
1664959679.6175616,2791,1664959679,605340442,Waveshare_Sense_HAT_B/IMU,-0.7730793298147652,-0.6342059082992173,0.011431026969701353,0.0007398066885808417,-1.0,-1.0,-1.0,-1.0,-1.0,-1.0,-1.0,-1.0,-1.0,-0.004793689962142628,-0.007190534943213942,0.0077231671612297895,0.0,0.0,0.0,0.0,0.0,0.0,0.0,0.0,0.0,-0.188009033203125,-0.290994873046875,9.994416503906251,0.0,0.0,0.0,0.0,0.0,0.0,0.0,0.0,0.0
1664959679.6296852,2792,1664959679,617443436,Waveshare_Sense_HAT_B/IMU,-0.7730815098807193,-0.6342039450638214,0.011391501416905222,0.0007542158189453649,-1.0,-1.0,-1.0,-1.0,-1.0,-1.0,-1.0,-1.0,-1.0,-0.011984224905356571,-0.0021305288720633903,-0.003728425526110933,0.0,0.0,0.0,0.0,0.0,0.0,0.0,0.0,0.0,-0.164058837890625,-0.3209326171875,9.994416503906251,0.0,0.0,0.0,0.0,0.0,0.0,0.0,0.0,0.0
1664959679.6418216,2793,1664959679,629552263,Waveshare_Sense_HAT_B/IMU,-0.7730367229221295,-0.6342588838790769,0.011371399229765215,0.0007645350481440897,-1.0,-1.0,-1.0,-1.0,-1.0,-1.0,-1.0,-1.0,-1.0,-0.011984224905356571,-0.003728425526110933,-0.015180018213451656,0.0,0.0,0.0,0.0,0.0,0.0,0.0,0.0,0.0,-0.17603393554687502,-0.354462890625,9.988428955078126,0.0,0.0,0.0,0.0,0.0,0.0,0.0,0.0,0.0
1664959679.653989,2794,1664959679,641662108,Waveshare_Sense_HAT_B/IMU,-0.7730105265251109,-0.6342918504635183,0.011309710958483309,0.0008153250716393186,-1.0,-1.0,-1.0,-1.0,-1.0,-1.0,-1.0,-1.0,-1.0,-0.011451592687340723,0.004527373853134705,-0.010652644360316951,0.0,0.0,0.0,0.0,0.0,0.0,0.0,0.0,0.0,-0.15567626953125,-0.360450439453125,9.990823974609375,0.0,0.0,0.0,0.0,0.0,0.0,0.0,0.0,0.0
1664959679.666122,2795,1664959679,653829601,Waveshare_Sense_HAT_B/IMU,-0.7729359049739629,-0.6343844370829609,0.011212012441952152,0.0008738226463381987,-1.0,-1.0,-1.0,-1.0,-1.0,-1.0,-1.0,-1.0,-1.0,-0.014381069886427884,0.00985369603329318,-0.022903185374681445,0.0,0.0,0.0,0.0,0.0,0.0,0.0,0.0,0.0,-0.154478759765625,-0.36404296875000003,9.98962646484375,0.0,0.0,0.0,0.0,0.0,0.0,0.0,0.0,0.0
1664959679.6782084,2796,1664959679,665955187,Waveshare_Sense_HAT_B/IMU,-0.7728633622229484,-0.6344744448970533,0.011114532820475942,0.0009323444632707319,-1.0,-1.0,-1.0,-1.0,-1.0,-1.0,-1.0,-1.0,-1.0,-0.015712650431467502,0.0111852765783328,-0.022104237047657675,0.0,0.0,0.0,0.0,0.0,0.0,0.0,0.0,0.0,-0.17124389648437502,-0.396375732421875,9.986033935546876,0.0,0.0,0.0,0.0,0.0,0.0,0.0,0.0,0.0
1664959679.6903107,2797,1664959679,678072124,Waveshare_Sense_HAT_B/IMU,-0.772773616462418,-0.6345853422351091,0.011017074456430506,0.0010025918246764369,-1.0,-1.0,-1.0,-1.0,-1.0,-1.0,-1.0,-1.0,-1.0,-0.015446334322459579,0.013582121559404112,-0.02609897868277653,0.0,0.0,0.0,0.0,0.0,0.0,0.0,0.0,0.0,-0.18202148437500001,-0.425115966796875,9.971663818359376,0.0,0.0,0.0,0.0,0.0,0.0,0.0,0.0,0.0
1664959679.702456,2798,1664959679,690179136,Waveshare_Sense_HAT_B/IMU,-0.7726699726044394,-0.6347130495251844,0.010923482170782817,0.0010657087596751076,-1.0,-1.0,-1.0,-1.0,-1.0,-1.0,-1.0,-1.0,-1.0,-0.015446334322459579,0.012250541014364494,-0.02902845588186369,0.0,0.0,0.0,0.0,0.0,0.0,0.0,0.0,0.0,-0.15687377929687502,-0.42152343750000004,9.9776513671875,0.0,0.0,0.0,0.0,0.0,0.0,0.0,0.0,0.0
1664959679.7146063,2799,1664959679,702318963,Waveshare_Sense_HAT_B/IMU,-0.7725810431707633,-0.634821336251038,0.010917730523498325,0.0010981501893666827,-1.0,-1.0,-1.0,-1.0,-1.0,-1.0,-1.0,-1.0,-1.0,-0.010120012142301104,-0.002396844981071314,-0.025300030355752758,0.0,0.0,0.0,0.0,0.0,0.0,0.0,0.0,0.0,-0.149688720703125,-0.415535888671875,9.9968115234375,0.0,0.0,0.0,0.0,0.0,0.0,0.0,0.0,0.0
1664959679.726645,2800,1664959679,714424956,Waveshare_Sense_HAT_B/IMU,-0.7725129510838329,-0.6349035871846062,0.010949575839074273,0.0011323324649487362,-1.0,-1.0,-1.0,-1.0,-1.0,-1.0,-1.0,-1.0,-1.0,-0.004527373853134705,-0.006125270507182247,-0.01970739206658636,0.0,0.0,0.0,0.0,0.0,0.0,0.0,0.0,0.0,-0.154478759765625,-0.386795654296875,9.998009033203125,0.0,0.0,0.0,0.0,0.0,0.0,0.0,0.0,0.0
1664959679.7387862,2801,1664959679,726525320,Waveshare_Sense_HAT_B/IMU,-0.7724734086613605,-0.634951001204201,0.01098548500506703,0.0011739250762029206,-1.0,-1.0,-1.0,-1.0,-1.0,-1.0,-1.0,-1.0,-1.0,-0.0034621094171030094,-0.005858954398174323,-0.012783173232380343,0.0,0.0,0.0,0.0,0.0,0.0,0.0,0.0,0.0,-0.16645385742187502,-0.39158569335937504,10.0063916015625,0.0,0.0,0.0,0.0,0.0,0.0,0.0,0.0,0.0
1664959679.75092,2802,1664959679,738643054,Waveshare_Sense_HAT_B/IMU,-0.7724493591724153,-0.6349801268610311,0.010985753915335747,0.0012406516777090885,-1.0,-1.0,-1.0,-1.0,-1.0,-1.0,-1.0,-1.0,-1.0,-0.004527373853134705,0.0007989483270237714,-0.009321063815277333,0.0,0.0,0.0,0.0,0.0,0.0,0.0,0.0,0.0,-0.17244140625,-0.40116577148437504,10.012379150390625,0.0,0.0,0.0,0.0,0.0,0.0,0.0,0.0,0.0
1664959679.7630699,2803,1664959679,750791029,Waveshare_Sense_HAT_B/IMU,-0.7724381871954071,-0.6349934462107034,0.010990887029578919,0.0013306517315564608,-1.0,-1.0,-1.0,-1.0,-1.0,-1.0,-1.0,-1.0,-1.0,-0.0007989483270237714,0.0029294771990871615,-0.006125270507182247,0.0,0.0,0.0,0.0,0.0,0.0,0.0,0.0,0.0,-0.18082397460937502,-0.39398071289062503,9.990823974609375,0.0,0.0,0.0,0.0,0.0,0.0,0.0,0.0,0.0
1664959679.7751493,2804,1664959679,762914411,Waveshare_Sense_HAT_B/IMU,-0.7724349438403004,-0.6349969231091117,0.01101338123238422,0.0013677025345710156,-1.0,-1.0,-1.0,-1.0,-1.0,-1.0,-1.0,-1.0,-1.0,-0.003728425526110933,-0.003994741635118856,-0.003728425526110933,0.0,0.0,0.0,0.0,0.0,0.0,0.0,0.0,0.0,-0.17962646484375,-0.3592529296875,9.990823974609375,0.0,0.0,0.0,0.0,0.0,0.0,0.0,0.0,0.0
1664959679.787249,2805,1664959679,775015719,Waveshare_Sense_HAT_B/IMU,-0.7724560695904258,-0.6349703554279392,0.011058281547543701,0.0014080801978363102,-1.0,-1.0,-1.0,-1.0,-1.0,-1.0,-1.0,-1.0,-1.0,-0.0010652644360316951,-0.0077231671612297895,0.0018642127630554665,0.0,0.0,0.0,0.0,0.0,0.0,0.0,0.0,0.0,-0.17603393554687502,-0.354462890625,10.011181640625,0.0,0.0,0.0,0.0,0.0,0.0,0.0,0.0,0.0
1664959679.799354,2806,1664959679,787119342,Waveshare_Sense_HAT_B/IMU,-0.7724802161821116,-0.6349402071760772,0.01110096569304664,0.0014203799210663242,-1.0,-1.0,-1.0,-1.0,-1.0,-1.0,-1.0,-1.0,-1.0,-0.005060006071150552,-0.010120012142301104,0.002396844981071314,0.0,0.0,0.0,0.0,0.0,0.0,0.0,0.0,0.0,-0.188009033203125,-0.3592529296875,10.021959228515625,0.0,0.0,0.0,0.0,0.0,0.0,0.0,0.0,0.0
1664959679.8114324,2807,1664959679,799221040,Waveshare_Sense_HAT_B/IMU,-0.7724605403877891,-0.6349642219741419,0.011094103996024205,0.001439170977580538,-1.0,-1.0,-1.0,-1.0,-1.0,-1.0,-1.0,-1.0,-1.0,-0.010120012142301104,-0.0031957933080950856,-0.008522115488253561,0.0,0.0,0.0,0.0,0.0,0.0,0.0,0.0,0.0,-0.183218994140625,-0.3784130859375,9.99920654296875,0.0,0.0,0.0,0.0,0.0,0.0,0.0,0.0,0.0
1664959679.8236022,2808,1664959679,811321274,Waveshare_Sense_HAT_B/IMU,-0.7724489214607848,-0.6349779795268333,0.011115420609047105,0.0014410672346259052,-1.0,-1.0,-1.0,-1.0,-1.0,-1.0,-1.0,-1.0,-1.0,-0.008255799379245638,-0.008522115488253561,-0.006391586616190171,0.0,0.0,0.0,0.0,0.0,0.0,0.0,0.0,0.0,-0.17962646484375,-0.355660400390625,10.001601562500001,0.0,0.0,0.0,0.0,0.0,0.0,0.0,0.0,0.0
1664959679.8357105,2809,1664959679,823470322,Waveshare_Sense_HAT_B/IMU,-0.7724572391576688,-0.6349682271115458,0.011090510428966553,0.0014713293844494791,-1.0,-1.0,-1.0,-1.0,-1.0,-1.0,-1.0,-1.0,-1.0,-0.010918960469324876,-0.0013315805450396189,-0.0018642127630554665,0.0,0.0,0.0,0.0,0.0,0.0,0.0,0.0,0.0,-0.16645385742187502,-0.38320312500000003,9.993218994140625,0.0,0.0,0.0,0.0,0.0,0.0,0.0,0.0,0.0
1664959679.8478289,2810,1664959679,835583316,Waveshare_Sense_HAT_B/IMU,-0.7724577185245481,-0.6349675950109455,0.011086513207279465,0.0015217104753728079,-1.0,-1.0,-1.0,-1.0,-1.0,-1.0,-1.0,-1.0,-1.0,-0.006391586616190171,-0.0015978966540475428,-0.003994741635118856,0.0,0.0,0.0,0.0,0.0,0.0,0.0,0.0,0.0,-0.17603393554687502,-0.38320312500000003,10.001601562500001,0.0,0.0,0.0,0.0,0.0,0.0,0.0,0.0,0.0
1664959679.8599608,2811,1664959679,847693254,Waveshare_Sense_HAT_B/IMU,-0.7724461725455585,-0.6349810481347234,0.011112158907945065,0.0015808079737517446,-1.0,-1.0,-1.0,-1.0,-1.0,-1.0,-1.0,-1.0,-1.0,-0.002396844981071314,-0.004793689962142628,-0.0066579027251980945,0.0,0.0,0.0,0.0,0.0,0.0,0.0,0.0,0.0,-0.154478759765625,-0.39038818359375,10.02076171875,0.0,0.0,0.0,0.0,0.0,0.0,0.0,0.0,0.0
1664959679.8721304,2812,1664959679,859804470,Waveshare_Sense_HAT_B/IMU,-0.7724423310675028,-0.6349859261442209,0.011096437405870792,0.0016086797898117462,-1.0,-1.0,-1.0,-1.0,-1.0,-1.0,-1.0,-1.0,-1.0,-0.010918960469324876,-0.003728425526110933,-0.005060006071150552,0.0,0.0,0.0,0.0,0.0,0.0,0.0,0.0,0.0,-0.147293701171875,-0.3975732421875,10.019564208984375,0.0,0.0,0.0,0.0,0.0,0.0,0.0,0.0,0.0
1664959679.8842192,2813,1664959679,871929444,Waveshare_Sense_HAT_B/IMU,-0.7723838196037079,-0.6350581830100397,0.011028869618490198,0.0016442144967961764,-1.0,-1.0,-1.0,-1.0,-1.0,-1.0,-1.0,-1.0,-1.0,-0.014381069886427884,0.004793689962142628,-0.018642127630554665,0.0,0.0,0.0,0.0,0.0,0.0,0.0,0.0,0.0,-0.16166381835937502,-0.38080810546875005,9.995614013671876,0.0,0.0,0.0,0.0,0.0,0.0,0.0,0.0,0.0
1664959679.8962927,2814,1664959679,884066622,Waveshare_Sense_HAT_B/IMU,-0.7723352674372981,-0.6351184110318262,0.010954022988003614,0.0016876081724641748,-1.0,-1.0,-1.0,-1.0,-1.0,-1.0,-1.0,-1.0,-1.0,-0.01411475377741996,0.0053263221801584755,-0.016511598758491276,0.0,0.0,0.0,0.0,0.0,0.0,0.0,0.0,0.0,-0.149688720703125,-0.374820556640625,9.980046386718751,0.0,0.0,0.0,0.0,0.0,0.0,0.0,0.0,0.0
1664959679.90838,2815,1664959679,896170153,Waveshare_Sense_HAT_B/IMU,-0.7723225958991545,-0.6351356952704106,0.010833103337805086,0.0017607751234730907,-1.0,-1.0,-1.0,-1.0,-1.0,-1.0,-1.0,-1.0,-1.0,-0.01411475377741996,0.01411475377741996,-0.007989483270237713,0.0,0.0,0.0,0.0,0.0,0.0,0.0,0.0,0.0,-0.16525634765625,-0.3496728515625,9.993218994140625,0.0,0.0,0.0,0.0,0.0,0.0,0.0,0.0,0.0
1664959679.9204972,2816,1664959679,908271813,Waveshare_Sense_HAT_B/IMU,-0.7723167660140385,-0.6351454302892869,0.01066098455509686,0.0018543798342077883,-1.0,-1.0,-1.0,-1.0,-1.0,-1.0,-1.0,-1.0,-1.0,-0.017310547085515045,0.02316950148368937,-0.006391586616190171,0.0,0.0,0.0,0.0,0.0,0.0,0.0,0.0,0.0,-0.17483642578125,-0.360450439453125,9.978848876953126,0.0,0.0,0.0,0.0,0.0,0.0,0.0,0.0,0.0
1664959679.932623,2817,1664959679,920381288,Waveshare_Sense_HAT_B/IMU,-0.7723010488747174,-0.6351662625973616,0.010550257501548789,0.0018975857718998154,-1.0,-1.0,-1.0,-1.0,-1.0,-1.0,-1.0,-1.0,-1.0,-0.015446334322459579,0.012516857123372417,-0.007989483270237713,0.0,0.0,0.0,0.0,0.0,0.0,0.0,0.0,0.0,-0.18202148437500001,-0.329315185546875,9.978848876953126,0.0,0.0,0.0,0.0,0.0,0.0,0.0,0.0,0.0
1664959679.944774,2818,1664959679,932491948,Waveshare_Sense_HAT_B/IMU,-0.7722884863106811,-0.635183389117011,0.010436296869612418,0.0019078284603114704,-1.0,-1.0,-1.0,-1.0,-1.0,-1.0,-1.0,-1.0,-1.0,-0.020772656502618055,0.008522115488253561,-0.007190534943213942,0.0,0.0,0.0,0.0,0.0,0.0,0.0,0.0,0.0,-0.16166381835937502,-0.34727783203125,9.9680712890625,0.0,0.0,0.0,0.0,0.0,0.0,0.0,0.0,0.0
1664959679.9569187,2819,1664959679,944600997,Waveshare_Sense_HAT_B/IMU,-0.7723065948963508,-0.6351630662138227,0.010328258244369039,0.0019312894906428153,-1.0,-1.0,-1.0,-1.0,-1.0,-1.0,-1.0,-1.0,-1.0,-0.01810949541253882,0.008522115488253561,0.0002663161090079238,0.0,0.0,0.0,0.0,0.0,0.0,0.0,0.0,0.0,-0.15687377929687502,-0.33410522460937503,9.96088623046875,0.0,0.0,0.0,0.0,0.0,0.0,0.0,0.0,0.0
1664959679.9690313,2820,1664959679,956764860,Waveshare_Sense_HAT_B/IMU,-0.7722663939082364,-0.6352120500057784,0.010295594713363634,0.0020661793056814906,-1.0,-1.0,-1.0,-1.0,-1.0,-1.0,-1.0,-1.0,-1.0,0.0026631610900792377,0.010652644360316951,-0.014381069886427884,0.0,0.0,0.0,0.0,0.0,0.0,0.0,0.0,0.0,-0.159268798828125,-0.346080322265625,9.96328125,0.0,0.0,0.0,0.0,0.0,0.0,0.0,0.0,0.0
1664959679.9811203,2821,1664959679,968883983,Waveshare_Sense_HAT_B/IMU,-0.7722332031612993,-0.6352522210306473,0.010286044876426885,0.002166308304301733,-1.0,-1.0,-1.0,-1.0,-1.0,-1.0,-1.0,-1.0,-1.0,0.0026631610900792377,0.0026631610900792377,-0.012516857123372417,0.0,0.0,0.0,0.0,0.0,0.0,0.0,0.0,0.0,-0.12214599609375,-0.3065625,9.978848876953126,0.0,0.0,0.0,0.0,0.0,0.0,0.0,0.0,0.0
1664959679.9932613,2822,1664959679,980991699,Waveshare_Sense_HAT_B/IMU,-0.7721907072561106,-0.6353027972941788,0.010332592214290325,0.0022594060353198914,-1.0,-1.0,-1.0,-1.0,-1.0,-1.0,-1.0,-1.0,-1.0,0.0077231671612297895,-0.003994741635118856,-0.014647385995435807,0.0,0.0,0.0,0.0,0.0,0.0,0.0,0.0,0.0,-0.1389111328125,-0.30416748046875003,9.981243896484376,0.0,0.0,0.0,0.0,0.0,0.0,0.0,0.0,0.0
1664959680.0053763,2823,1664959679,993099859,Waveshare_Sense_HAT_B/IMU,-0.7721444140605938,-0.6353578745537614,0.010400604889659,0.0022808979544371062,-1.0,-1.0,-1.0,-1.0,-1.0,-1.0,-1.0,-1.0,-1.0,-0.0002663161090079238,-0.014647385995435807,-0.015712650431467502,0.0,0.0,0.0,0.0,0.0,0.0,0.0,0.0,0.0,-0.132923583984375,-0.3305126953125,9.96088623046875,0.0,0.0,0.0,0.0,0.0,0.0,0.0,0.0,0.0
1664959680.0174696,2824,1664959680,5242074,Waveshare_Sense_HAT_B/IMU,-0.7720913927328269,-0.6354208307737798,0.01048319046107452,0.0023133967234809,-1.0,-1.0,-1.0,-1.0,-1.0,-1.0,-1.0,-1.0,-1.0,0.0021305288720633903,-0.014647385995435807,-0.017044230976507122,0.0,0.0,0.0,0.0,0.0,0.0,0.0,0.0,0.0,-0.13412109375,-0.346080322265625,9.97525634765625,0.0,0.0,0.0,0.0,0.0,0.0,0.0,0.0,0.0
1664959680.029608,2825,1664959680,17350364,Waveshare_Sense_HAT_B/IMU,-0.7720278717082546,-0.6354972543792397,0.010528762469619079,0.0023130375978952845,-1.0,-1.0,-1.0,-1.0,-1.0,-1.0,-1.0,-1.0,-1.0,-0.0066579027251980945,-0.013315805450396189,-0.019441075957578435,0.0,0.0,0.0,0.0,0.0,0.0,0.0,0.0,0.0,-0.125738525390625,-0.37122802734375004,9.969268798828125,0.0,0.0,0.0,0.0,0.0,0.0,0.0,0.0,0.0
1664959680.0416996,2826,1664959680,29464876,Waveshare_Sense_HAT_B/IMU,-0.7719666940373416,-0.6355706619534413,0.010581562968549231,0.002321095918819457,-1.0,-1.0,-1.0,-1.0,-1.0,-1.0,-1.0,-1.0,-1.0,-0.003728425526110933,-0.013582121559404112,-0.01890844373956259,0.0,0.0,0.0,0.0,0.0,0.0,0.0,0.0,0.0,-0.124541015625,-0.346080322265625,9.962083740234375,0.0,0.0,0.0,0.0,0.0,0.0,0.0,0.0,0.0
1664959680.0538194,2827,1664959680,41577296,Waveshare_Sense_HAT_B/IMU,-0.7719050450286603,-0.6356452525655701,0.010599252426744685,0.0023173687984832255,-1.0,-1.0,-1.0,-1.0,-1.0,-1.0,-1.0,-1.0,-1.0,-0.009587379924285256,-0.010386328251309028,-0.019441075957578435,0.0,0.0,0.0,0.0,0.0,0.0,0.0,0.0,0.0,-0.140108642578125,-0.360450439453125,9.966873779296876,0.0,0.0,0.0,0.0,0.0,0.0,0.0,0.0,0.0
1664959680.0659485,2828,1664959680,53681771,Waveshare_Sense_HAT_B/IMU,-0.7718660940660581,-0.6356936881735867,0.010536677184153083,0.0022904325763436323,-1.0,-1.0,-1.0,-1.0,-1.0,-1.0,-1.0,-1.0,-1.0,-0.019174759848570512,-0.0015978966540475428,-0.013315805450396189,0.0,0.0,0.0,0.0,0.0,0.0,0.0,0.0,0.0,-0.14130615234375002,-0.33769775390625,9.971663818359376,0.0,0.0,0.0,0.0,0.0,0.0,0.0,0.0,0.0
1664959680.0780835,2829,1664959680,65796301,Waveshare_Sense_HAT_B/IMU,-0.7718735337660961,-0.6356855990866374,0.010489345857797,0.002245130013502361,-1.0,-1.0,-1.0,-1.0,-1.0,-1.0,-1.0,-1.0,-1.0,-0.019973708175594285,-0.0034621094171030094,-0.0015978966540475428,0.0,0.0,0.0,0.0,0.0,0.0,0.0,0.0,0.0,-0.17962646484375,-0.3400927734375,9.978848876953126,0.0,0.0,0.0,0.0,0.0,0.0,0.0,0.0,0.0
1664959680.090183,2830,1664959680,77926294,Waveshare_Sense_HAT_B/IMU,-0.7718911118328579,-0.6356651989576111,0.010449928745528877,0.002159929820271261,-1.0,-1.0,-1.0,-1.0,-1.0,-1.0,-1.0,-1.0,-1.0,-0.023968449810713142,-0.0077231671612297895,0.0013315805450396189,0.0,0.0,0.0,0.0,0.0,0.0,0.0,0.0,0.0,-0.183218994140625,-0.3400927734375,9.978848876953126,0.0,0.0,0.0,0.0,0.0,0.0,0.0,0.0,0.0
1664959680.102282,2831,1664959680,90055065,Waveshare_Sense_HAT_B/IMU,-0.7719102052125911,-0.6356435986326949,0.010366232132894152,0.002095671085900167,-1.0,-1.0,-1.0,-1.0,-1.0,-1.0,-1.0,-1.0,-1.0,-0.025033714246744835,0.0002663161090079238,0.0018642127630554665,0.0,0.0,0.0,0.0,0.0,0.0,0.0,0.0,0.0,-0.17962646484375,-0.32332763671875003,9.980046386718751,0.0,0.0,0.0,0.0,0.0,0.0,0.0,0.0,0.0
1664959680.1143734,2832,1664959680,102159022,Waveshare_Sense_HAT_B/IMU,-0.7719383169173095,-0.6356102982466586,0.01034331560987321,0.0019492203209966305,-1.0,-1.0,-1.0,-1.0,-1.0,-1.0,-1.0,-1.0,-1.0,-0.02902845588186369,-0.016245282649483352,0.003994741635118856,0.0,0.0,0.0,0.0,0.0,0.0,0.0,0.0,0.0,-0.183218994140625,-0.317340087890625,9.98244140625,0.0,0.0,0.0,0.0,0.0,0.0,0.0,0.0,0.0
1664959680.126532,2833,1664959680,114256330,Waveshare_Sense_HAT_B/IMU,-0.7719341912452082,-0.6356158468020355,0.010328493802654671,0.0018498368863306923,-1.0,-1.0,-1.0,-1.0,-1.0,-1.0,-1.0,-1.0,-1.0,-0.02103897261162598,-0.013848437668412037,-0.004793689962142628,0.0,0.0,0.0,0.0,0.0,0.0,0.0,0.0,0.0,-0.18082397460937502,-0.27542724609375,9.933343505859375,0.0,0.0,0.0,0.0,0.0,0.0,0.0,0.0,0.0
1664959680.1386368,2834,1664959680,126395286,Waveshare_Sense_HAT_B/IMU,-0.7719249633816531,-0.6356281391241074,0.01028144825968576,0.001735362654165966,-1.0,-1.0,-1.0,-1.0,-1.0,-1.0,-1.0,-1.0,-1.0,-0.026631610900792378,-0.011717908796348646,-0.006391586616190171,0.0,0.0,0.0,0.0,0.0,0.0,0.0,0.0,0.0,-0.18561401367187502,-0.28021728515625,9.94651611328125,0.0,0.0,0.0,0.0,0.0,0.0,0.0,0.0,0.0
1664959680.150761,2835,1664959680,138508428,Waveshare_Sense_HAT_B/IMU,-0.7718784255765546,-0.6356857063539088,0.010236919122504698,0.0016075925075302205,-1.0,-1.0,-1.0,-1.0,-1.0,-1.0,-1.0,-1.0,-1.0,-0.027164243118808225,-0.012516857123372417,-0.015446334322459579,0.0,0.0,0.0,0.0,0.0,0.0,0.0,0.0,0.0,-0.19160156250000002,-0.26225463867187504,9.938133544921875,0.0,0.0,0.0,0.0,0.0,0.0,0.0,0.0,0.0
1664959680.1629062,2836,1664959680,150619292,Waveshare_Sense_HAT_B/IMU,-0.7718053969988015,-0.6357754829175174,0.010189546879094107,0.0014620598204914132,-1.0,-1.0,-1.0,-1.0,-1.0,-1.0,-1.0,-1.0,-1.0,-0.03036003642690331,-0.015180018213451656,-0.0223705531566656,0.0,0.0,0.0,0.0,0.0,0.0,0.0,0.0,0.0,-0.178428955078125,-0.27063720703125,9.9393310546875,0.0,0.0,0.0,0.0,0.0,0.0,0.0,0.0,0.0
1664959680.1749797,2837,1664959680,162741637,Waveshare_Sense_HAT_B/IMU,-0.7717116155995609,-0.6358908814885826,0.010103462657247255,0.0013744928964229625,-1.0,-1.0,-1.0,-1.0,-1.0,-1.0,-1.0,-1.0,-1.0,-0.029827404208887465,-0.0053263221801584755,-0.027430559227816148,0.0,0.0,0.0,0.0,0.0,0.0,0.0,0.0,0.0,-0.15328125,-0.32811767578125,9.940528564453125,0.0,0.0,0.0,0.0,0.0,0.0,0.0,0.0,0.0
1664959680.1871037,2838,1664959680,174850852,Waveshare_Sense_HAT_B/IMU,-0.7716461023051019,-0.6359726257669447,0.009967906803452638,0.0013239737155805122,-1.0,-1.0,-1.0,-1.0,-1.0,-1.0,-1.0,-1.0,-1.0,-0.03036003642690331,0.0029294771990871615,-0.020772656502618055,0.0,0.0,0.0,0.0,0.0,0.0,0.0,0.0,0.0,-0.128133544921875,-0.324525146484375,9.94412109375,0.0,0.0,0.0,0.0,0.0,0.0,0.0,0.0,0.0
1664959680.1992593,2839,1664959680,186964216,Waveshare_Sense_HAT_B/IMU,-0.7715741907079747,-0.6360614470895557,0.009866223486980834,0.001327175112548732,-1.0,-1.0,-1.0,-1.0,-1.0,-1.0,-1.0,-1.0,-1.0,-0.02103897261162598,0.0042610577441267805,-0.0223705531566656,0.0,0.0,0.0,0.0,0.0,0.0,0.0,0.0,0.0,-0.128133544921875,-0.338895263671875,9.9584912109375,0.0,0.0,0.0,0.0,0.0,0.0,0.0,0.0,0.0
1664959680.211362,2840,1664959680,199089932,Waveshare_Sense_HAT_B/IMU,-0.7714987774136486,-0.6361545527020275,0.009747447402082037,0.001417319608449469,-1.0,-1.0,-1.0,-1.0,-1.0,-1.0,-1.0,-1.0,-1.0,-0.011717908796348646,0.015180018213451656,-0.02370213370170522,0.0,0.0,0.0,0.0,0.0,0.0,0.0,0.0,0.0,-0.137713623046875,-0.326920166015625,9.956096191406251,0.0,0.0,0.0,0.0,0.0,0.0,0.0,0.0,0.0
1664959680.2234452,2841,1664959680,211221610,Waveshare_Sense_HAT_B/IMU,-0.7714664921827811,-0.6361951938254712,0.009635797781553096,0.0015093686358841612,-1.0,-1.0,-1.0,-1.0,-1.0,-1.0,-1.0,-1.0,-1.0,-0.011451592687340723,0.015712650431467502,-0.012516857123372417,0.0,0.0,0.0,0.0,0.0,0.0,0.0,0.0,0.0,-0.147293701171875,-0.3496728515625,10.02315673828125,0.0,0.0,0.0,0.0,0.0,0.0,0.0,0.0,0.0
1664959680.2355628,2842,1664959680,223323715,Waveshare_Sense_HAT_B/IMU,-0.7714625583998299,-0.6362012354491836,0.009536309224726786,0.0016024376717427042,-1.0,-1.0,-1.0,-1.0,-1.0,-1.0,-1.0,-1.0,-1.0,-0.010120012142301104,0.015978966540475426,-0.004793689962142628,0.0,0.0,0.0,0.0,0.0,0.0,0.0,0.0,0.0,-0.1580712890625,-0.358055419921875,10.0063916015625,0.0,0.0,0.0,0.0,0.0,0.0,0.0,0.0,0.0
1664959680.247694,2843,1664959680,235429856,Waveshare_Sense_HAT_B/IMU,-0.7715187659266679,-0.6361342688594611,0.009439233656724435,0.0016990213665637212,-1.0,-1.0,-1.0,-1.0,-1.0,-1.0,-1.0,-1.0,-1.0,-0.009587379924285256,0.015712650431467502,0.010386328251309028,0.0,0.0,0.0,0.0,0.0,0.0,0.0,0.0,0.0,-0.144898681640625,-0.36404296875000003,10.011181640625,0.0,0.0,0.0,0.0,0.0,0.0,0.0,0.0,0.0
1664959680.2598605,2844,1664959680,247539998,Waveshare_Sense_HAT_B/IMU,-0.771585094394303,-0.6360541632238923,0.009400365478173082,0.0017823251570660784,-1.0,-1.0,-1.0,-1.0,-1.0,-1.0,-1.0,-1.0,-1.0,-0.0053263221801584755,0.0077231671612297895,0.012783173232380343,0.0,0.0,0.0,0.0,0.0,0.0,0.0,0.0,0.0,-0.16525634765625,-0.36164794921875004,10.011181640625,0.0,0.0,0.0,0.0,0.0,0.0,0.0,0.0,0.0
1664959680.271932,2845,1664959680,259691898,Waveshare_Sense_HAT_B/IMU,-0.7716248958593304,-0.6360060170212194,0.009373056982494023,0.0018740879608253522,-1.0,-1.0,-1.0,-1.0,-1.0,-1.0,-1.0,-1.0,-1.0,-0.0026631610900792377,0.007456851052221866,0.005858954398174323,0.0,0.0,0.0,0.0,0.0,0.0,0.0,0.0,0.0,-0.18202148437500001,-0.348475341796875,10.00399658203125,0.0,0.0,0.0,0.0,0.0,0.0,0.0,0.0,0.0
1664959680.284032,2846,1664959680,271799021,Waveshare_Sense_HAT_B/IMU,-0.7716388768791224,-0.6359888200145339,0.00936838016266715,0.0019743247897471066,-1.0,-1.0,-1.0,-1.0,-1.0,-1.0,-1.0,-1.0,-1.0,-0.0005326322180158476,0.006391586616190171,-0.0002663161090079238,0.0,0.0,0.0,0.0,0.0,0.0,0.0,0.0,0.0,-0.18681152343750002,-0.379610595703125,10.0063916015625,0.0,0.0,0.0,0.0,0.0,0.0,0.0,0.0,0.0
1664959680.2961297,2847,1664959680,283903663,Waveshare_Sense_HAT_B/IMU,-0.7716469457953722,-0.6359785431063504,0.009401181174234706,0.001975233031047117,-1.0,-1.0,-1.0,-1.0,-1.0,-1.0,-1.0,-1.0,-1.0,-0.009321063815277333,-0.008788431597261484,-0.0015978966540475428,0.0,0.0,0.0,0.0,0.0,0.0,0.0,0.0,0.0,-0.178428955078125,-0.386795654296875,9.988428955078126,0.0,0.0,0.0,0.0,0.0,0.0,0.0,0.0,0.0
1664959680.3082247,2848,1664959680,296006601,Waveshare_Sense_HAT_B/IMU,-0.7716365763664487,-0.6359909506517253,0.009423695063133501,0.0019231936817612047,-1.0,-1.0,-1.0,-1.0,-1.0,-1.0,-1.0,-1.0,-1.0,-0.015712650431467502,-0.013315805450396189,-0.005858954398174323,0.0,0.0,0.0,0.0,0.0,0.0,0.0,0.0,0.0,-0.15567626953125,-0.365240478515625,9.993218994140625,0.0,0.0,0.0,0.0,0.0,0.0,0.0,0.0,0.0
1664959680.3203576,2849,1664959680,308107317,Waveshare_Sense_HAT_B/IMU,-0.7716149894398672,-0.6360174429339295,0.00940994394523164,0.0018903201969849596,-1.0,-1.0,-1.0,-1.0,-1.0,-1.0,-1.0,-1.0,-1.0,-0.0167779148674992,-0.007456851052221866,-0.008788431597261484,0.0,0.0,0.0,0.0,0.0,0.0,0.0,0.0,0.0,-0.144898681640625,-0.358055419921875,9.978848876953126,0.0,0.0,0.0,0.0,0.0,0.0,0.0,0.0,0.0
1664959680.3325517,2850,1664959680,320216570,Waveshare_Sense_HAT_B/IMU,-0.7715661364111969,-0.6360769441579701,0.009392660677267612,0.0018963595541427217,-1.0,-1.0,-1.0,-1.0,-1.0,-1.0,-1.0,-1.0,-1.0,-0.012783173232380343,-0.0053263221801584755,-0.016245282649483352,0.0,0.0,0.0,0.0,0.0,0.0,0.0,0.0,0.0,-0.1197509765625,-0.3592529296875,9.981243896484376,0.0,0.0,0.0,0.0,0.0,0.0,0.0,0.0,0.0
1664959680.3449206,2851,1664959680,332399469,Waveshare_Sense_HAT_B/IMU,-0.7714978035933839,-0.6361597901224523,0.009399796883916293,0.0018719776929409023,-1.0,-1.0,-1.0,-1.0,-1.0,-1.0,-1.0,-1.0,-1.0,-0.014647385995435807,-0.011451592687340723,-0.02103897261162598,0.0,0.0,0.0,0.0,0.0,0.0,0.0,0.0,0.0,-0.1197509765625,-0.37122802734375004,9.972861328125001,0.0,0.0,0.0,0.0,0.0,0.0,0.0,0.0,0.0
1664959680.3571277,2852,1664959680,344654923,Waveshare_Sense_HAT_B/IMU,-0.7714843836151565,-0.636176254212056,0.009392195288836095,0.0018455574540252948,-1.0,-1.0,-1.0,-1.0,-1.0,-1.0,-1.0,-1.0,-1.0,-0.015978966540475426,-0.009587379924285256,-0.006924218834206019,0.0,0.0,0.0,0.0,0.0,0.0,0.0,0.0,0.0,-0.108973388671875,-0.367635498046875,9.969268798828125,0.0,0.0,0.0,0.0,0.0,0.0,0.0,0.0,0.0
1664959680.3694015,2853,1664959680,356897304,Waveshare_Sense_HAT_B/IMU,-0.7714860606265614,-0.6361740966422692,0.00940096159818874,0.0018436217972880838,-1.0,-1.0,-1.0,-1.0,-1.0,-1.0,-1.0,-1.0,-1.0,-0.012783173232380343,-0.010386328251309028,-0.0034621094171030094,0.0,0.0,0.0,0.0,0.0,0.0,0.0,0.0,0.0,-0.096998291015625,-0.39517822265625,9.969268798828125,0.0,0.0,0.0,0.0,0.0,0.0,0.0,0.0,0.0
1664959680.381902,2854,1664959680,369135721,Waveshare_Sense_HAT_B/IMU,-0.7715156324439568,-0.6361383449612374,0.009395207428865914,0.0018344050664443451,-1.0,-1.0,-1.0,-1.0,-1.0,-1.0,-1.0,-1.0,-1.0,-0.013049489341388266,-0.008522115488253561,0.0034621094171030094,0.0,0.0,0.0,0.0,0.0,0.0,0.0,0.0,0.0,-0.116158447265625,-0.3496728515625,9.96088623046875,0.0,0.0,0.0,0.0,0.0,0.0,0.0,0.0,0.0
1664959680.3940594,2855,1664959680,381569858,Waveshare_Sense_HAT_B/IMU,-0.7715480729515094,-0.6360996090692477,0.009338566374230516,0.0019104043647084333,-1.0,-1.0,-1.0,-1.0,-1.0,-1.0,-1.0,-1.0,-1.0,-0.0066579027251980945,0.006391586616190171,0.003994741635118856,0.0,0.0,0.0,0.0,0.0,0.0,0.0,0.0,0.0,-0.1149609375,-0.329315185546875,10.02315673828125,0.0,0.0,0.0,0.0,0.0,0.0,0.0,0.0,0.0
1664959680.4062507,2856,1664959680,393801423,Waveshare_Sense_HAT_B/IMU,-0.7715960796234103,-0.6360419076324534,0.009292958193556728,0.0019551401654254678,-1.0,-1.0,-1.0,-1.0,-1.0,-1.0,-1.0,-1.0,-1.0,-0.008788431597261484,0.003728425526110933,0.008255799379245638,0.0,0.0,0.0,0.0,0.0,0.0,0.0,0.0,0.0,-0.140108642578125,-0.3209326171875,10.02076171875,0.0,0.0,0.0,0.0,0.0,0.0,0.0,0.0,0.0
1664959680.4184453,2857,1664959680,406012156,Waveshare_Sense_HAT_B/IMU,-0.7716494547692105,-0.635976601389182,0.009331139451226192,0.0019522490587299197,-1.0,-1.0,-1.0,-1.0,-1.0,-1.0,-1.0,-1.0,-1.0,-0.005060006071150552,-0.011984224905356571,0.00985369603329318,0.0,0.0,0.0,0.0,0.0,0.0,0.0,0.0,0.0,-0.12693603515625002,-0.298179931640625,10.024354248046876,0.0,0.0,0.0,0.0,0.0,0.0,0.0,0.0,0.0
1664959680.4306762,2858,1664959680,418237555,Waveshare_Sense_HAT_B/IMU,-0.7717072556427899,-0.6359052048704674,0.009431981512642093,0.001876094791884778,-1.0,-1.0,-1.0,-1.0,-1.0,-1.0,-1.0,-1.0,-1.0,-0.0066579027251980945,-0.025300030355752758,0.011717908796348646,0.0,0.0,0.0,0.0,0.0,0.0,0.0,0.0,0.0,-0.14609619140625002,-0.28261230468750004,10.038724365234376,0.0,0.0,0.0,0.0,0.0,0.0,0.0,0.0,0.0
1664959680.4429936,2859,1664959680,430453028,Waveshare_Sense_HAT_B/IMU,-0.7717606386790766,-0.6358391520419846,0.009531045016579122,0.0018023587560219087,-1.0,-1.0,-1.0,-1.0,-1.0,-1.0,-1.0,-1.0,-1.0,-0.006924218834206019,-0.02370213370170522,0.010918960469324876,0.0,0.0,0.0,0.0,0.0,0.0,0.0,0.0,0.0,-0.1580712890625,-0.29338989257812503,9.98962646484375,0.0,0.0,0.0,0.0,0.0,0.0,0.0,0.0,0.0
1664959680.4555693,2860,1664959680,442789537,Waveshare_Sense_HAT_B/IMU,-0.7717884627251542,-0.6358041693821064,0.009627645769082349,0.0017133118859012095,-1.0,-1.0,-1.0,-1.0,-1.0,-1.0,-1.0,-1.0,-1.0,-0.00985369603329318,-0.025300030355752758,0.004527373853134705,0.0,0.0,0.0,0.0,0.0,0.0,0.0,0.0,0.0,-0.154478759765625,-0.310155029296875,9.99920654296875,0.0,0.0,0.0,0.0,0.0,0.0,0.0,0.0,0.0
1664959680.4677017,2861,1664959680,455249228,Waveshare_Sense_HAT_B/IMU,-0.7718152008642876,-0.6357714379780249,0.009661776742856953,0.0016200112176062546,-1.0,-1.0,-1.0,-1.0,-1.0,-1.0,-1.0,-1.0,-1.0,-0.014913702104443732,-0.017843179303530892,0.003728425526110933,0.0,0.0,0.0,0.0,0.0,0.0,0.0,0.0,0.0,-0.1772314453125,-0.26584716796875,10.009984130859376,0.0,0.0,0.0,0.0,0.0,0.0,0.0,0.0,0.0
1664959680.4798627,2862,1664959680,467477164,Waveshare_Sense_HAT_B/IMU,-0.7718306996523896,-0.6357520226540214,0.00972066879022756,0.0014984537677048026,-1.0,-1.0,-1.0,-1.0,-1.0,-1.0,-1.0,-1.0,-1.0,-0.017310547085515045,-0.02370213370170522,0.0013315805450396189,0.0,0.0,0.0,0.0,0.0,0.0,0.0,0.0,0.0,-0.16645385742187502,-0.29937744140625,10.007589111328125,0.0,0.0,0.0,0.0,0.0,0.0,0.0,0.0,0.0
1664959680.4920864,2863,1664959680,479669897,Waveshare_Sense_HAT_B/IMU,-0.7718142964417057,-0.6357708547239485,0.009810174915661888,0.0013684151047519014,-1.0,-1.0,-1.0,-1.0,-1.0,-1.0,-1.0,-1.0,-1.0,-0.015978966540475426,-0.028495823663847845,-0.006924218834206019,0.0,0.0,0.0,0.0,0.0,0.0,0.0,0.0,0.0,-0.1772314453125,-0.307760009765625,9.95130615234375,0.0,0.0,0.0,0.0,0.0,0.0,0.0,0.0,0.0
1664959680.504316,2864,1664959680,491884593,Waveshare_Sense_HAT_B/IMU,-0.7717870288286284,-0.6358027914787209,0.009896695986418722,0.001283701015302292,-1.0,-1.0,-1.0,-1.0,-1.0,-1.0,-1.0,-1.0,-1.0,-0.013582121559404112,-0.026365294791784455,-0.010652644360316951,0.0,0.0,0.0,0.0,0.0,0.0,0.0,0.0,0.0,-0.16046630859375,-0.355660400390625,9.926158447265626,0.0,0.0,0.0,0.0,0.0,0.0,0.0,0.0,0.0
1664959680.5165558,2865,1664959680,504091677,Waveshare_Sense_HAT_B/IMU,-0.7717067204867595,-0.635899560198473,0.00994621770163405,0.0012488588354639498,-1.0,-1.0,-1.0,-1.0,-1.0,-1.0,-1.0,-1.0,-1.0,-0.012516857123372417,-0.01757686319452297,-0.02450108202872899,0.0,0.0,0.0,0.0,0.0,0.0,0.0,0.0,0.0,-0.16046630859375,-0.377215576171875,9.9249609375,0.0,0.0,0.0,0.0,0.0,0.0,0.0,0.0,0.0
1664959680.5287209,2866,1664959680,516340613,Waveshare_Sense_HAT_B/IMU,-0.7716250453276357,-0.635998758217165,0.009942658701482405,0.0012298403532019061,-1.0,-1.0,-1.0,-1.0,-1.0,-1.0,-1.0,-1.0,-1.0,-0.015978966540475426,-0.010918960469324876,-0.025566346464760685,0.0,0.0,0.0,0.0,0.0,0.0,0.0,0.0,0.0,-0.15208374023437501,-0.3688330078125,9.90580078125,0.0,0.0,0.0,0.0,0.0,0.0,0.0,0.0,0.0
1664959680.5409875,2867,1664959680,528538809,Waveshare_Sense_HAT_B/IMU,-0.7715390847694777,-0.6361026382989265,0.009970027541237388,0.0012135786125050865,-1.0,-1.0,-1.0,-1.0,-1.0,-1.0,-1.0,-1.0,-1.0,-0.0111852765783328,-0.015180018213451656,-0.0268979270098003,0.0,0.0,0.0,0.0,0.0,0.0,0.0,0.0,0.0,-0.1484912109375,-0.338895263671875,9.964478759765626,0.0,0.0,0.0,0.0,0.0,0.0,0.0,0.0,0.0
1664959680.5531776,2868,1664959680,540767430,Waveshare_Sense_HAT_B/IMU,-0.7714764606255841,-0.6361782769448568,0.009984097169793583,0.0012603363830926207,-1.0,-1.0,-1.0,-1.0,-1.0,-1.0,-1.0,-1.0,-1.0,-0.004793689962142628,-0.007989483270237713,-0.021837920938649752,0.0,0.0,0.0,0.0,0.0,0.0,0.0,0.0,0.0,-0.1580712890625,-0.3305126953125,9.95130615234375,0.0,0.0,0.0,0.0,0.0,0.0,0.0,0.0,0.0
1664959680.565406,2869,1664959680,552977662,Waveshare_Sense_HAT_B/IMU,-0.7714461710706573,-0.6362138907481342,0.010052998139673065,0.0012757695509408623,-1.0,-1.0,-1.0,-1.0,-1.0,-1.0,-1.0,-1.0,-1.0,-0.0029294771990871615,-0.0167779148674992,-0.012516857123372417,0.0,0.0,0.0,0.0,0.0,0.0,0.0,0.0,0.0,-0.1389111328125,-0.34368530273437503,9.947713623046875,0.0,0.0,0.0,0.0,0.0,0.0,0.0,0.0,0.0
1664959680.577647,2870,1664959680,565191932,Waveshare_Sense_HAT_B/IMU,-0.7713887991450556,-0.6362824449207787,0.010117372809771794,0.0012687027285211588,-1.0,-1.0,-1.0,-1.0,-1.0,-1.0,-1.0,-1.0,-1.0,-0.006125270507182247,-0.01970739206658636,-0.01970739206658636,0.0,0.0,0.0,0.0,0.0,0.0,0.0,0.0,0.0,-0.13172607421875002,-0.33769775390625,9.954898681640625,0.0,0.0,0.0,0.0,0.0,0.0,0.0,0.0,0.0
1664959680.589843,2871,1664959680,577404294,Waveshare_Sense_HAT_B/IMU,-0.7713872066072135,-0.6362837148337589,0.010158340870967382,0.0012727257447694323,-1.0,-1.0,-1.0,-1.0,-1.0,-1.0,-1.0,-1.0,-1.0,-0.0066579027251980945,-0.015446334322459579,-0.0055926382891664,0.0,0.0,0.0,0.0,0.0,0.0,0.0,0.0,0.0,-0.1293310546875,-0.33171020507812504,9.9393310546875,0.0,0.0,0.0,0.0,0.0,0.0,0.0,0.0,0.0
1664959680.602017,2872,1664959680,589635897,Waveshare_Sense_HAT_B/IMU,-0.7714202149657043,-0.6362430683816276,0.010200018961470091,0.0012527935918812392,-1.0,-1.0,-1.0,-1.0,-1.0,-1.0,-1.0,-1.0,-1.0,-0.008788431597261484,-0.017310547085515045,0.0034621094171030094,0.0,0.0,0.0,0.0,0.0,0.0,0.0,0.0,0.0,-0.130528564453125,-0.32213012695312504,9.954898681640625,0.0,0.0,0.0,0.0,0.0,0.0,0.0,0.0,0.0
1664959680.6142342,2873,1664959680,601831148,Waveshare_Sense_HAT_B/IMU,-0.7714778910030233,-0.6361726450277413,0.01023532084377524,0.001211453325346828,-1.0,-1.0,-1.0,-1.0,-1.0,-1.0,-1.0,-1.0,-1.0,-0.011451592687340723,-0.016245282649483352,0.010386328251309028,0.0,0.0,0.0,0.0,0.0,0.0,0.0,0.0,0.0,-0.154478759765625,-0.31853759765625,9.94412109375,0.0,0.0,0.0,0.0,0.0,0.0,0.0,0.0,0.0
1664959680.6264632,2874,1664959680,614012937,Waveshare_Sense_HAT_B/IMU,-0.7715589193697285,-0.6360727377226976,0.0103420270236845,0.001161354386391889,-1.0,-1.0,-1.0,-1.0,-1.0,-1.0,-1.0,-1.0,-1.0,-0.006391586616190171,-0.025566346464760685,0.016511598758491276,0.0,0.0,0.0,0.0,0.0,0.0,0.0,0.0,0.0,-0.16046630859375,-0.3448828125,9.962083740234375,0.0,0.0,0.0,0.0,0.0,0.0,0.0,0.0,0.0
1664959680.6386766,2875,1664959680,626215262,Waveshare_Sense_HAT_B/IMU,-0.7716341717321495,-0.6359804447815467,0.010403828735843543,0.0011572460156059983,-1.0,-1.0,-1.0,-1.0,-1.0,-1.0,-1.0,-1.0,-1.0,-0.0055926382891664,-0.014647385995435807,0.015446334322459579,0.0,0.0,0.0,0.0,0.0,0.0,0.0,0.0,0.0,-0.1580712890625,-0.358055419921875,9.948911132812501,0.0,0.0,0.0,0.0,0.0,0.0,0.0,0.0,0.0
1664959680.6508837,2876,1664959680,638461328,Waveshare_Sense_HAT_B/IMU,-0.771679496073247,-0.6359241556681793,0.010483910147552558,0.0011450789802292573,-1.0,-1.0,-1.0,-1.0,-1.0,-1.0,-1.0,-1.0,-1.0,-0.004527373853134705,-0.017310547085515045,0.008255799379245638,0.0,0.0,0.0,0.0,0.0,0.0,0.0,0.0,0.0,-0.15687377929687502,-0.35685791015625,9.94651611328125,0.0,0.0,0.0,0.0,0.0,0.0,0.0,0.0,0.0
1664959680.663097,2877,1664959680,650673653,Waveshare_Sense_HAT_B/IMU,-0.7717364748444733,-0.6358537300147339,0.0105614146654713,0.0011419024649284828,-1.0,-1.0,-1.0,-1.0,-1.0,-1.0,-1.0,-1.0,-1.0,-0.0029294771990871615,-0.017044230976507122,0.010918960469324876,0.0,0.0,0.0,0.0,0.0,0.0,0.0,0.0,0.0,-0.147293701171875,-0.3400927734375,9.98244140625,0.0,0.0,0.0,0.0,0.0,0.0,0.0,0.0,0.0
1664959680.6752753,2878,1664959680,662881904,Waveshare_Sense_HAT_B/IMU,-0.7718537991107572,-0.6357113786990474,0.01055268160803295,0.0011818213598835349,-1.0,-1.0,-1.0,-1.0,-1.0,-1.0,-1.0,-1.0,-1.0,-0.0055926382891664,-0.0015978966540475428,0.02583266257376861,0.0,0.0,0.0,0.0,0.0,0.0,0.0,0.0,0.0,-0.15687377929687502,-0.32572265625,9.9776513671875,0.0,0.0,0.0,0.0,0.0,0.0,0.0,0.0,0.0
